ExperimentName	Subject	Session	Display.RefreshRate	Group	RandomSeed	SessionDate	SessionTime	Block	Procedure[Block]	Running[Block]	SessionList	SessionList.Cycle	SessionList.Sample	Trial	BlockInstr.OffsetDelay	BlockInstr.OffsetTime	BlockInstr.OnsetDelay	BlockInstr.OnsetTime	BlockList	BlockList.Cycle	BlockList.Sample	Category	Challenge.ACC	Challenge.RESP	Challenge.RT	Condition	CorrResp	Delay	DelayFixation.OffsetDelay	DelayFixation.OffsetTime	DelayFixation.OnsetDelay	DelayFixation.OnsetTime	Distractors	Feedback.OffsetTime	Feedback.OnsetTime	Filename	GetReady.OffsetTime	GetReady.OnsetDelay	GetReady.OnsetTime	Go.OffsetDelay	Go.OffsetTime	Go.OnsetTime	Novelty	Permutation	PostGoFixation.OffsetDelay	PostGoFixation.OffsetTime	PostGoFixation.OnsetTime	Procedure[Trial]	Relevance	Running[Trial]	Stim.ACC	Stim.CRESP	Stim.OffsetDelay	Stim.OffsetTime	Stim.OnsetDelay	Stim.OnsetTime	Stim.RESP	Stim.RT	Stim.RTTime
TRSEscan	106	1	60.001	1	-835382713	5/6/2010	18:20:11	1	BlockProc	SessionList	2	1	2	1	-999999	22553	20	17653	1	2	1		1	2	1807	Faces			NULL	NULL	NULL	NULL		NULL	NULL		33441	1	25371	0	34443	33453			0	36343	34453	InstrProc		BlockList	NULL	NULL	NULL	NULL	NULL	NULL	NULL	NULL	NULL
TRSEscan	106	1	60.001	1	-835382713	5/6/2010	18:20:11	1	BlockProc	SessionList	2	1	2	2	NULL	NULL	NULL	NULL	2	2	2	Scenes	NULL	NULL	NULL	Faces	1	4390	0	41343	10	37053	0	NULL	NULL	scene/s_070.bmp	NULL	NULL	NULL	NULL	NULL	NULL	Novel	SFFSFSSSFSSFSSFFFSFF	NULL	NULL	NULL	TrialProc	Irrelevant	BlockList	1	1	0	36943	10	36453	1	587	37040
TRSEscan	106	1	60.001	1	-835382713	5/6/2010	18:20:11	1	BlockProc	SessionList	2	1	2	3	NULL	NULL	NULL	NULL	3	2	3	Faces	NULL	NULL	NULL	Faces	1	2390	0	44342	10	42052	1	NULL	NULL	face/m_006.bmp	NULL	NULL	NULL	NULL	NULL	NULL	Novel	SFFSFSSSFSSFSSFFFSFF	NULL	NULL	NULL	TrialProc	Relevant	BlockList	1	1	0	41942	9	41452	1	476	41928
TRSEscan	106	1	60.001	1	-835382713	5/6/2010	18:20:11	1	BlockProc	SessionList	2	1	2	4	NULL	NULL	NULL	NULL	4	2	4	Faces	NULL	NULL	NULL	Faces	1	2390	0	47342	10	45052	0	NULL	NULL	face/f_046.bmp	NULL	NULL	NULL	NULL	NULL	NULL	Novel	SFFSFSSSFSSFSSFFFSFF	NULL	NULL	NULL	TrialProc	Relevant	BlockList	0	1	0	44942	10	44452	2	508	44960
TRSEscan	106	1	60.001	1	-835382713	5/6/2010	18:20:11	1	BlockProc	SessionList	2	1	2	5	NULL	NULL	NULL	NULL	5	2	5	Scenes	NULL	NULL	NULL	Faces	1	4390	0	52342	10	48052	2	NULL	NULL	scene/s_127.bmp	NULL	NULL	NULL	NULL	NULL	NULL	Novel	SFFSFSSSFSSFSSFFFSFF	NULL	NULL	NULL	TrialProc	Irrelevant	BlockList	1	1	0	47942	10	47452	1	404	47856
TRSEscan	106	1	60.001	1	-835382713	5/6/2010	18:20:11	1	BlockProc	SessionList	2	1	2	6	NULL	NULL	NULL	NULL	6	2	6	Faces	NULL	NULL	NULL	Faces	2	6390	0	59342	10	53052	1	NULL	NULL	face/f_046.bmp	NULL	NULL	NULL	NULL	NULL	NULL	Repeat	SFFSFSSSFSSFSSFFFSFF	NULL	NULL	NULL	TrialProc	Relevant	BlockList	1	2	0	52942	10	52452	2	612	53064
TRSEscan	106	1	60.001	1	-835382713	5/6/2010	18:20:11	1	BlockProc	SessionList	2	1	2	7	NULL	NULL	NULL	NULL	7	2	7	Scenes	NULL	NULL	NULL	Faces	1	6390	0	66342	10	60052	1	NULL	NULL	scene/s_127.bmp	NULL	NULL	NULL	NULL	NULL	NULL	Repeat	SFFSFSSSFSSFSSFFFSFF	NULL	NULL	NULL	TrialProc	Irrelevant	BlockList	1	1	0	59942	10	59452	1	564	60016
TRSEscan	106	1	60.001	1	-835382713	5/6/2010	18:20:11	1	BlockProc	SessionList	2	1	2	8	NULL	NULL	NULL	NULL	8	2	8	Scenes	NULL	NULL	NULL	Faces	1	4390	0	71342	10	67052	0	NULL	NULL	scene/s_227.bmp	NULL	NULL	NULL	NULL	NULL	NULL	Novel	SFFSFSSSFSSFSSFFFSFF	NULL	NULL	NULL	TrialProc	Irrelevant	BlockList	1	1	0	66942	10	66452	1	588	67040
TRSEscan	106	1	60.001	1	-835382713	5/6/2010	18:20:11	1	BlockProc	SessionList	2	1	2	9	NULL	NULL	NULL	NULL	9	2	9	Scenes	NULL	NULL	NULL	Faces	1	2390	0	74342	10	72052	0	NULL	NULL	scene/s_227.bmp	NULL	NULL	NULL	NULL	NULL	NULL	Repeat	SFFSFSSSFSSFSSFFFSFF	NULL	NULL	NULL	TrialProc	Irrelevant	BlockList	1	1	0	71942	10	71452	1	532	71984
TRSEscan	106	1	60.001	1	-835382713	5/6/2010	18:20:11	1	BlockProc	SessionList	2	1	2	10	NULL	NULL	NULL	NULL	10	2	10	Faces	NULL	NULL	NULL	Faces	1	4390	0	79342	10	75052	3	NULL	NULL	face/f_115.bmp	NULL	NULL	NULL	NULL	NULL	NULL	Novel	SFFSFSSSFSSFSSFFFSFF	NULL	NULL	NULL	TrialProc	Relevant	BlockList	0	1	0	74942	10	74452	2	476	74928
TRSEscan	106	1	60.001	1	-835382713	5/6/2010	18:20:11	1	BlockProc	SessionList	2	1	2	11	NULL	NULL	NULL	NULL	11	2	11	Scenes	NULL	NULL	NULL	Faces	1	6390	0	86342	10	80052	1	NULL	NULL	scene/s_227.bmp	NULL	NULL	NULL	NULL	NULL	NULL	Repeat	SFFSFSSSFSSFSSFFFSFF	NULL	NULL	NULL	TrialProc	Irrelevant	BlockList	1	1	0	79942	10	79452	1	484	79936
TRSEscan	106	1	60.001	1	-835382713	5/6/2010	18:20:11	1	BlockProc	SessionList	2	1	2	12	NULL	NULL	NULL	NULL	12	2	12	Scenes	NULL	NULL	NULL	Faces	1	2390	0	89342	10	87052	0	NULL	NULL	scene/s_346.bmp	NULL	NULL	NULL	NULL	NULL	NULL	Novel	SFFSFSSSFSSFSSFFFSFF	NULL	NULL	NULL	TrialProc	Irrelevant	BlockList	1	1	0	86942	10	86452	1	539	86991
TRSEscan	106	1	60.001	1	-835382713	5/6/2010	18:20:11	1	BlockProc	SessionList	2	1	2	13	NULL	NULL	NULL	NULL	13	2	13	Faces	NULL	NULL	NULL	Faces	2	4390	0	94341	10	90051	2	NULL	NULL	face/f_115.bmp	NULL	NULL	NULL	NULL	NULL	NULL	Repeat	SFFSFSSSFSSFSSFFFSFF	NULL	NULL	NULL	TrialProc	Relevant	BlockList	1	2	0	89941	9	89451	2	548	89999
TRSEscan	106	1	60.001	1	-835382713	5/6/2010	18:20:11	1	BlockProc	SessionList	2	1	2	14	NULL	NULL	NULL	NULL	14	2	14	Scenes	NULL	NULL	NULL	Faces	1	2390	0	97341	10	95051	1	NULL	NULL	scene/s_346.bmp	NULL	NULL	NULL	NULL	NULL	NULL	Repeat	SFFSFSSSFSSFSSFFFSFF	NULL	NULL	NULL	TrialProc	Irrelevant	BlockList	1	1	0	94941	10	94451	1	476	94927
TRSEscan	106	1	60.001	1	-835382713	5/6/2010	18:20:11	1	BlockProc	SessionList	2	1	2	15	NULL	NULL	NULL	NULL	15	2	15	Scenes	NULL	NULL	NULL	Faces	1	6390	0	104341	10	98051	0	NULL	NULL	scene/s_299.bmp	NULL	NULL	NULL	NULL	NULL	NULL	Novel	SFFSFSSSFSSFSSFFFSFF	NULL	NULL	NULL	TrialProc	Irrelevant	BlockList	1	1	0	97941	10	97451	1	508	97959
TRSEscan	106	1	60.001	1	-835382713	5/6/2010	18:20:11	1	BlockProc	SessionList	2	1	2	16	NULL	NULL	NULL	NULL	16	2	16	Faces	NULL	NULL	NULL	Faces	2	6390	0	111341	10	105051	2	NULL	NULL	face/f_115.bmp	NULL	NULL	NULL	NULL	NULL	NULL	Repeat	SFFSFSSSFSSFSSFFFSFF	NULL	NULL	NULL	TrialProc	Relevant	BlockList	1	2	0	104941	10	104451	2	492	104943
TRSEscan	106	1	60.001	1	-835382713	5/6/2010	18:20:11	1	BlockProc	SessionList	2	1	2	17	NULL	NULL	NULL	NULL	17	2	17	Faces	NULL	NULL	NULL	Faces	1	2390	0	114341	10	112051	0	NULL	NULL	face/f_120.bmp	NULL	NULL	NULL	NULL	NULL	NULL	Novel	SFFSFSSSFSSFSSFFFSFF	NULL	NULL	NULL	TrialProc	Relevant	BlockList	0	1	0	111941	10	111451	2	556	112007
TRSEscan	106	1	60.001	1	-835382713	5/6/2010	18:20:11	1	BlockProc	SessionList	2	1	2	18	NULL	NULL	NULL	NULL	18	2	18	Faces	NULL	NULL	NULL	Faces	2	4390	0	119341	10	115051	0	NULL	NULL	face/f_120.bmp	NULL	NULL	NULL	NULL	NULL	NULL	Repeat	SFFSFSSSFSSFSSFFFSFF	NULL	NULL	NULL	TrialProc	Relevant	BlockList	1	2	0	114941	10	114451	2	484	114935
TRSEscan	106	1	60.001	1	-835382713	5/6/2010	18:20:11	1	BlockProc	SessionList	2	1	2	19	NULL	NULL	NULL	NULL	19	2	19	Scenes	NULL	NULL	NULL	Faces	1	2390	0	122341	10	120051	3	NULL	NULL	scene/s_120.bmp	NULL	NULL	NULL	NULL	NULL	NULL	Novel	SFFSFSSSFSSFSSFFFSFF	NULL	NULL	NULL	TrialProc	Irrelevant	BlockList	1	1	0	119941	10	119451	1	476	119927
TRSEscan	106	1	60.001	1	-835382713	5/6/2010	18:20:11	1	BlockProc	SessionList	2	1	2	20	NULL	NULL	NULL	NULL	20	2	20	Faces	NULL	NULL	NULL	Faces	1	6390	0	129341	10	123051	1	NULL	NULL	face/f_089.bmp	NULL	NULL	NULL	NULL	NULL	NULL	Novel	SFFSFSSSFSSFSSFFFSFF	NULL	NULL	NULL	TrialProc	Relevant	BlockList	0	1	0	122941	10	122451	2	388	122839
TRSEscan	106	1	60.001	1	-835382713	5/6/2010	18:20:11	1	BlockProc	SessionList	2	1	2	21	NULL	NULL	NULL	NULL	21	2	21	Faces	NULL	NULL	NULL	Faces	1	4390	0	134341	10	130051	0	NULL	NULL	face/m_119.bmp	NULL	NULL	NULL	NULL	NULL	NULL	Novel	SFFSFSSSFSSFSSFFFSFF	NULL	NULL	NULL	TrialProc	Relevant	BlockList	0	1	0	129941	10	129451	2	356	129807
TRSEscan	106	1	60.001	1	-835382713	5/6/2010	18:20:11	1	BlockProc	SessionList	2	1	2	22	NULL	NULL	NULL	NULL	22	2	22		NULL	NULL	NULL	Faces			NULL	NULL	NULL	NULL		149340	147450		NULL	NULL	NULL	NULL	NULL	NULL			NULL	NULL	NULL	FeedbackProc		BlockList	NULL	NULL	NULL	NULL	NULL	NULL	NULL	NULL	NULL
TRSEscan	106	1	60.001	1	-835382713	5/6/2010	18:20:11	2	BlockProc	SessionList	2	1	3	1	-999999	156342	10	149450	1	3	23		1	2	1320	Scenes			NULL	NULL	NULL	NULL		NULL	NULL		168118	1	158684	0	169123	168133			0	171023	169133	InstrProc		BlockList	NULL	NULL	NULL	NULL	NULL	NULL	NULL	NULL	NULL
TRSEscan	106	1	60.001	1	-835382713	5/6/2010	18:20:11	2	BlockProc	SessionList	2	1	3	2	NULL	NULL	NULL	NULL	2	3	24	Scenes	NULL	NULL	NULL	Scenes	1	4390	0	176023	10	171733	0	NULL	NULL	scene/s_255.bmp	NULL	NULL	NULL	NULL	NULL	NULL	Novel	SFFSFSSSFSSFSSFFFSFF	NULL	NULL	NULL	TrialProc	Relevant	BlockList	0	1	0	171623	10	171133	2	569	171702
TRSEscan	106	1	60.001	1	-835382713	5/6/2010	18:20:11	2	BlockProc	SessionList	2	1	3	3	NULL	NULL	NULL	NULL	3	3	25	Faces	NULL	NULL	NULL	Scenes	1	2390	0	179023	10	176733	1	NULL	NULL	face/m_139.bmp	NULL	NULL	NULL	NULL	NULL	NULL	Novel	SFFSFSSSFSSFSSFFFSFF	NULL	NULL	NULL	TrialProc	Irrelevant	BlockList	1	1	0	176623	10	176133	1	377	176510
TRSEscan	106	1	60.001	1	-835382713	5/6/2010	18:20:11	2	BlockProc	SessionList	2	1	3	4	NULL	NULL	NULL	NULL	4	3	26	Faces	NULL	NULL	NULL	Scenes	1	2390	0	182023	10	179733	0	NULL	NULL	face/m_080.bmp	NULL	NULL	NULL	NULL	NULL	NULL	Novel	SFFSFSSSFSSFSSFFFSFF	NULL	NULL	NULL	TrialProc	Irrelevant	BlockList	0	1	0	179623	10	179133	2	481	179614
TRSEscan	106	1	60.001	1	-835382713	5/6/2010	18:20:11	2	BlockProc	SessionList	2	1	3	5	NULL	NULL	NULL	NULL	5	3	27	Scenes	NULL	NULL	NULL	Scenes	1	4390	0	187023	10	182733	2	NULL	NULL	scene/s_201.bmp	NULL	NULL	NULL	NULL	NULL	NULL	Novel	SFFSFSSSFSSFSSFFFSFF	NULL	NULL	NULL	TrialProc	Relevant	BlockList	0	1	0	182623	10	182133	2	928	183061
TRSEscan	106	1	60.001	1	-835382713	5/6/2010	18:20:11	2	BlockProc	SessionList	2	1	3	6	NULL	NULL	NULL	NULL	6	3	28	Faces	NULL	NULL	NULL	Scenes	1	6390	0	194023	10	187733	1	NULL	NULL	face/m_080.bmp	NULL	NULL	NULL	NULL	NULL	NULL	Repeat	SFFSFSSSFSSFSSFFFSFF	NULL	NULL	NULL	TrialProc	Irrelevant	BlockList	1	1	0	187623	10	187133	1	648	187781
TRSEscan	106	1	60.001	1	-835382713	5/6/2010	18:20:11	2	BlockProc	SessionList	2	1	3	7	NULL	NULL	NULL	NULL	7	3	29	Scenes	NULL	NULL	NULL	Scenes	2	6390	0	201023	10	194733	1	NULL	NULL	scene/s_201.bmp	NULL	NULL	NULL	NULL	NULL	NULL	Repeat	SFFSFSSSFSSFSSFFFSFF	NULL	NULL	NULL	TrialProc	Relevant	BlockList	0	2	0	194623	10	194133	1	480	194613
TRSEscan	106	1	60.001	1	-835382713	5/6/2010	18:20:11	2	BlockProc	SessionList	2	1	3	8	NULL	NULL	NULL	NULL	8	3	30	Scenes	NULL	NULL	NULL	Scenes	1	4390	0	206022	10	201732	0	NULL	NULL	scene/s_092.bmp	NULL	NULL	NULL	NULL	NULL	NULL	Novel	SFFSFSSSFSSFSSFFFSFF	NULL	NULL	NULL	TrialProc	Relevant	BlockList	0	1	0	201622	9	201132	2	457	201589
TRSEscan	106	1	60.001	1	-835382713	5/6/2010	18:20:11	2	BlockProc	SessionList	2	1	3	9	NULL	NULL	NULL	NULL	9	3	31	Scenes	NULL	NULL	NULL	Scenes	2	2390	0	209022	10	206732	0	NULL	NULL	scene/s_092.bmp	NULL	NULL	NULL	NULL	NULL	NULL	Repeat	SFFSFSSSFSSFSSFFFSFF	NULL	NULL	NULL	TrialProc	Relevant	BlockList	1	2	0	206622	10	206132	2	465	206597
TRSEscan	106	1	60.001	1	-835382713	5/6/2010	18:20:11	2	BlockProc	SessionList	2	1	3	10	NULL	NULL	NULL	NULL	10	3	32	Faces	NULL	NULL	NULL	Scenes	1	4390	0	214022	10	209732	3	NULL	NULL	face/f_108.bmp	NULL	NULL	NULL	NULL	NULL	NULL	Novel	SFFSFSSSFSSFSSFFFSFF	NULL	NULL	NULL	TrialProc	Irrelevant	BlockList	1	1	0	209622	10	209132	1	593	209725
TRSEscan	106	1	60.001	1	-835382713	5/6/2010	18:20:11	2	BlockProc	SessionList	2	1	3	11	NULL	NULL	NULL	NULL	11	3	33	Scenes	NULL	NULL	NULL	Scenes	2	6390	0	221022	10	214732	1	NULL	NULL	scene/s_092.bmp	NULL	NULL	NULL	NULL	NULL	NULL	Repeat	SFFSFSSSFSSFSSFFFSFF	NULL	NULL	NULL	TrialProc	Relevant	BlockList	1	2	0	214622	10	214132	2	473	214605
TRSEscan	106	1	60.001	1	-835382713	5/6/2010	18:20:11	2	BlockProc	SessionList	2	1	3	12	NULL	NULL	NULL	NULL	12	3	34	Scenes	NULL	NULL	NULL	Scenes	1	2390	0	224022	10	221732	0	NULL	NULL	scene/s_138.bmp	NULL	NULL	NULL	NULL	NULL	NULL	Novel	SFFSFSSSFSSFSSFFFSFF	NULL	NULL	NULL	TrialProc	Relevant	BlockList	0	1	0	221622	10	221132	2	457	221589
TRSEscan	106	1	60.001	1	-835382713	5/6/2010	18:20:11	2	BlockProc	SessionList	2	1	3	13	NULL	NULL	NULL	NULL	13	3	35	Faces	NULL	NULL	NULL	Scenes	1	4390	0	229022	10	224732	2	NULL	NULL	face/f_108.bmp	NULL	NULL	NULL	NULL	NULL	NULL	Repeat	SFFSFSSSFSSFSSFFFSFF	NULL	NULL	NULL	TrialProc	Irrelevant	BlockList	1	1	0	224622	10	224132	1	601	224733
TRSEscan	106	1	60.001	1	-835382713	5/6/2010	18:20:11	2	BlockProc	SessionList	2	1	3	14	NULL	NULL	NULL	NULL	14	3	36	Scenes	NULL	NULL	NULL	Scenes	2	2390	0	232022	10	229732	1	NULL	NULL	scene/s_138.bmp	NULL	NULL	NULL	NULL	NULL	NULL	Repeat	SFFSFSSSFSSFSSFFFSFF	NULL	NULL	NULL	TrialProc	Relevant	BlockList	1	2	0	229622	10	229132	2	520	229652
TRSEscan	106	1	60.001	1	-835382713	5/6/2010	18:20:11	2	BlockProc	SessionList	2	1	3	15	NULL	NULL	NULL	NULL	15	3	37	Scenes	NULL	NULL	NULL	Scenes	1	6390	0	239022	10	232732	0	NULL	NULL	scene/s_324.bmp	NULL	NULL	NULL	NULL	NULL	NULL	Novel	SFFSFSSSFSSFSSFFFSFF	NULL	NULL	NULL	TrialProc	Relevant	BlockList	0	1	0	232622	10	232132	2	520	232652
TRSEscan	106	1	60.001	1	-835382713	5/6/2010	18:20:11	2	BlockProc	SessionList	2	1	3	16	NULL	NULL	NULL	NULL	16	3	38	Faces	NULL	NULL	NULL	Scenes	1	6390	0	246022	10	239732	2	NULL	NULL	face/f_108.bmp	NULL	NULL	NULL	NULL	NULL	NULL	Repeat	SFFSFSSSFSSFSSFFFSFF	NULL	NULL	NULL	TrialProc	Irrelevant	BlockList	1	1	0	239622	10	239132	1	544	239676
TRSEscan	106	1	60.001	1	-835382713	5/6/2010	18:20:11	2	BlockProc	SessionList	2	1	3	17	NULL	NULL	NULL	NULL	17	3	39	Faces	NULL	NULL	NULL	Scenes	1	2390	0	249021	10	246731	0	NULL	NULL	face/m_094.bmp	NULL	NULL	NULL	NULL	NULL	NULL	Novel	SFFSFSSSFSSFSSFFFSFF	NULL	NULL	NULL	TrialProc	Irrelevant	BlockList	1	1	0	246621	9	246131	1	489	246620
TRSEscan	106	1	60.001	1	-835382713	5/6/2010	18:20:11	2	BlockProc	SessionList	2	1	3	18	NULL	NULL	NULL	NULL	18	3	40	Faces	NULL	NULL	NULL	Scenes	1	4390	0	254021	10	249731	0	NULL	NULL	face/m_094.bmp	NULL	NULL	NULL	NULL	NULL	NULL	Repeat	SFFSFSSSFSSFSSFFFSFF	NULL	NULL	NULL	TrialProc	Irrelevant	BlockList	1	1	0	249621	10	249131	1	481	249612
TRSEscan	106	1	60.001	1	-835382713	5/6/2010	18:20:11	2	BlockProc	SessionList	2	1	3	19	NULL	NULL	NULL	NULL	19	3	41	Scenes	NULL	NULL	NULL	Scenes	1	2390	0	257021	10	254731	3	NULL	NULL	scene/s_236.bmp	NULL	NULL	NULL	NULL	NULL	NULL	Novel	SFFSFSSSFSSFSSFFFSFF	NULL	NULL	NULL	TrialProc	Relevant	BlockList	0	1	0	254621	10	254131	2	505	254636
TRSEscan	106	1	60.001	1	-835382713	5/6/2010	18:20:11	2	BlockProc	SessionList	2	1	3	20	NULL	NULL	NULL	NULL	20	3	42	Faces	NULL	NULL	NULL	Scenes	1	6390	0	264021	10	257731	1	NULL	NULL	face/f_138.bmp	NULL	NULL	NULL	NULL	NULL	NULL	Novel	SFFSFSSSFSSFSSFFFSFF	NULL	NULL	NULL	TrialProc	Irrelevant	BlockList	1	1	0	257621	10	257131	1	489	257620
TRSEscan	106	1	60.001	1	-835382713	5/6/2010	18:20:11	2	BlockProc	SessionList	2	1	3	21	NULL	NULL	NULL	NULL	21	3	43	Faces	NULL	NULL	NULL	Scenes	1	4390	0	269021	10	264731	0	NULL	NULL	face/m_111.bmp	NULL	NULL	NULL	NULL	NULL	NULL	Novel	SFFSFSSSFSSFSSFFFSFF	NULL	NULL	NULL	TrialProc	Irrelevant	BlockList	1	1	0	264621	10	264131	1	497	264628
TRSEscan	106	1	60.001	1	-835382713	5/6/2010	18:20:11	2	BlockProc	SessionList	2	1	3	22	NULL	NULL	NULL	NULL	22	3	44		NULL	NULL	NULL	Scenes			NULL	NULL	NULL	NULL		284021	282131		NULL	NULL	NULL	NULL	NULL	NULL			NULL	NULL	NULL	FeedbackProc		BlockList	NULL	NULL	NULL	NULL	NULL	NULL	NULL	NULL	NULL
TRSEscan	106	1	60.001	1	-835382713	5/6/2010	18:20:11	3	BlockProc	SessionList	2	1	4	1	-999999	293435	10	284131	1	4	45		1	2	1740	Categorize			NULL	NULL	NULL	NULL		NULL	NULL		304771	1	296198	0	305770	304780			0	307670	305780	InstrProc		BlockList	NULL	NULL	NULL	NULL	NULL	NULL	NULL	NULL	NULL
TRSEscan	106	1	60.001	1	-835382713	5/6/2010	18:20:11	3	BlockProc	SessionList	2	1	4	2	NULL	NULL	NULL	NULL	2	4	46	Scenes	NULL	NULL	NULL	Categorize	2	4390	0	312670	10	308380	0	NULL	NULL	scene/s_352.bmp	NULL	NULL	NULL	NULL	NULL	NULL	Novel	SFFSFSSSFSSFSSFFFSFF	NULL	NULL	NULL	TrialProc	Irrelevant	BlockList	1	2	0	308270	10	307780	2	503	308283
TRSEscan	106	1	60.001	1	-835382713	5/6/2010	18:20:11	3	BlockProc	SessionList	2	1	4	3	NULL	NULL	NULL	NULL	3	4	47	Faces	NULL	NULL	NULL	Categorize	1	2390	0	315670	10	313380	1	NULL	NULL	face/f_107.bmp	NULL	NULL	NULL	NULL	NULL	NULL	Novel	SFFSFSSSFSSFSSFFFSFF	NULL	NULL	NULL	TrialProc	Irrelevant	BlockList	1	1	0	313270	10	312780	1	463	313243
TRSEscan	106	1	60.001	1	-835382713	5/6/2010	18:20:11	3	BlockProc	SessionList	2	1	4	4	NULL	NULL	NULL	NULL	4	4	48	Faces	NULL	NULL	NULL	Categorize	1	2390	0	318670	10	316380	0	NULL	NULL	face/f_086.bmp	NULL	NULL	NULL	NULL	NULL	NULL	Novel	SFFSFSSSFSSFSSFFFSFF	NULL	NULL	NULL	TrialProc	Irrelevant	BlockList	1	1	0	316270	10	315780	1	503	316283
TRSEscan	106	1	60.001	1	-835382713	5/6/2010	18:20:11	3	BlockProc	SessionList	2	1	4	5	NULL	NULL	NULL	NULL	5	4	49	Scenes	NULL	NULL	NULL	Categorize	2	4390	0	323670	10	319380	2	NULL	NULL	scene/s_240.bmp	NULL	NULL	NULL	NULL	NULL	NULL	Novel	SFFSFSSSFSSFSSFFFSFF	NULL	NULL	NULL	TrialProc	Irrelevant	BlockList	1	2	0	319270	10	318780	2	519	319299
TRSEscan	106	1	60.001	1	-835382713	5/6/2010	18:20:11	3	BlockProc	SessionList	2	1	4	6	NULL	NULL	NULL	NULL	6	4	50	Faces	NULL	NULL	NULL	Categorize	1	6390	0	330670	10	324380	1	NULL	NULL	face/f_086.bmp	NULL	NULL	NULL	NULL	NULL	NULL	Repeat	SFFSFSSSFSSFSSFFFSFF	NULL	NULL	NULL	TrialProc	Irrelevant	BlockList	1	1	0	324270	10	323780	1	414	324194
TRSEscan	106	1	60.001	1	-835382713	5/6/2010	18:20:11	3	BlockProc	SessionList	2	1	4	7	NULL	NULL	NULL	NULL	7	4	51	Scenes	NULL	NULL	NULL	Categorize	2	6390	0	337670	10	331380	1	NULL	NULL	scene/s_240.bmp	NULL	NULL	NULL	NULL	NULL	NULL	Repeat	SFFSFSSSFSSFSSFFFSFF	NULL	NULL	NULL	TrialProc	Irrelevant	BlockList	1	2	0	331270	10	330780	2	422	331202
TRSEscan	106	1	60.001	1	-835382713	5/6/2010	18:20:11	3	BlockProc	SessionList	2	1	4	8	NULL	NULL	NULL	NULL	8	4	52	Scenes	NULL	NULL	NULL	Categorize	2	4390	0	342670	10	338380	0	NULL	NULL	scene/s_196.bmp	NULL	NULL	NULL	NULL	NULL	NULL	Novel	SFFSFSSSFSSFSSFFFSFF	NULL	NULL	NULL	TrialProc	Irrelevant	BlockList	1	2	0	338270	10	337780	2	446	338226
TRSEscan	106	1	60.001	1	-835382713	5/6/2010	18:20:11	3	BlockProc	SessionList	2	1	4	9	NULL	NULL	NULL	NULL	9	4	53	Scenes	NULL	NULL	NULL	Categorize	2	2390	0	345669	10	343379	0	NULL	NULL	scene/s_196.bmp	NULL	NULL	NULL	NULL	NULL	NULL	Repeat	SFFSFSSSFSSFSSFFFSFF	NULL	NULL	NULL	TrialProc	Irrelevant	BlockList	1	2	0	343269	9	342779	2	439	343218
TRSEscan	106	1	60.001	1	-835382713	5/6/2010	18:20:11	3	BlockProc	SessionList	2	1	4	10	NULL	NULL	NULL	NULL	10	4	54	Faces	NULL	NULL	NULL	Categorize	1	4390	0	350669	10	346379	3	NULL	NULL	face/m_004.bmp	NULL	NULL	NULL	NULL	NULL	NULL	Novel	SFFSFSSSFSSFSSFFFSFF	NULL	NULL	NULL	TrialProc	Irrelevant	BlockList	1	1	0	346269	10	345779	1	471	346250
TRSEscan	106	1	60.001	1	-835382713	5/6/2010	18:20:11	3	BlockProc	SessionList	2	1	4	11	NULL	NULL	NULL	NULL	11	4	55	Scenes	NULL	NULL	NULL	Categorize	2	6390	0	357669	10	351379	1	NULL	NULL	scene/s_196.bmp	NULL	NULL	NULL	NULL	NULL	NULL	Repeat	SFFSFSSSFSSFSSFFFSFF	NULL	NULL	NULL	TrialProc	Irrelevant	BlockList	1	2	0	351269	10	350779	2	471	351250
TRSEscan	106	1	60.001	1	-835382713	5/6/2010	18:20:11	3	BlockProc	SessionList	2	1	4	12	NULL	NULL	NULL	NULL	12	4	56	Scenes	NULL	NULL	NULL	Categorize	2	2390	0	360669	10	358379	0	NULL	NULL	scene/s_313.bmp	NULL	NULL	NULL	NULL	NULL	NULL	Novel	SFFSFSSSFSSFSSFFFSFF	NULL	NULL	NULL	TrialProc	Irrelevant	BlockList	1	2	0	358269	10	357779	2	511	358290
TRSEscan	106	1	60.001	1	-835382713	5/6/2010	18:20:11	3	BlockProc	SessionList	2	1	4	13	NULL	NULL	NULL	NULL	13	4	57	Faces	NULL	NULL	NULL	Categorize	1	4390	0	365669	10	361379	2	NULL	NULL	face/m_004.bmp	NULL	NULL	NULL	NULL	NULL	NULL	Repeat	SFFSFSSSFSSFSSFFFSFF	NULL	NULL	NULL	TrialProc	Irrelevant	BlockList	1	1	0	361269	10	360779	1	471	361250
TRSEscan	106	1	60.001	1	-835382713	5/6/2010	18:20:11	3	BlockProc	SessionList	2	1	4	14	NULL	NULL	NULL	NULL	14	4	58	Scenes	NULL	NULL	NULL	Categorize	2	2390	0	368669	10	366379	1	NULL	NULL	scene/s_313.bmp	NULL	NULL	NULL	NULL	NULL	NULL	Repeat	SFFSFSSSFSSFSSFFFSFF	NULL	NULL	NULL	TrialProc	Irrelevant	BlockList	1	2	0	366269	10	365779	2	527	366306
TRSEscan	106	1	60.001	1	-835382713	5/6/2010	18:20:11	3	BlockProc	SessionList	2	1	4	15	NULL	NULL	NULL	NULL	15	4	59	Scenes	NULL	NULL	NULL	Categorize	2	6390	0	375669	10	369379	0	NULL	NULL	scene/s_232.bmp	NULL	NULL	NULL	NULL	NULL	NULL	Novel	SFFSFSSSFSSFSSFFFSFF	NULL	NULL	NULL	TrialProc	Irrelevant	BlockList	1	2	0	369269	10	368779	2	590	369369
TRSEscan	106	1	60.001	1	-835382713	5/6/2010	18:20:11	3	BlockProc	SessionList	2	1	4	16	NULL	NULL	NULL	NULL	16	4	60	Faces	NULL	NULL	NULL	Categorize	1	6390	0	382669	10	376379	2	NULL	NULL	face/m_004.bmp	NULL	NULL	NULL	NULL	NULL	NULL	Repeat	SFFSFSSSFSSFSSFFFSFF	NULL	NULL	NULL	TrialProc	Irrelevant	BlockList	1	1	0	376269	10	375779	1	446	376225
TRSEscan	106	1	60.001	1	-835382713	5/6/2010	18:20:11	3	BlockProc	SessionList	2	1	4	17	NULL	NULL	NULL	NULL	17	4	61	Faces	NULL	NULL	NULL	Categorize	1	2390	0	385669	10	383379	0	NULL	NULL	face/m_134.bmp	NULL	NULL	NULL	NULL	NULL	NULL	Novel	SFFSFSSSFSSFSSFFFSFF	NULL	NULL	NULL	TrialProc	Irrelevant	BlockList	1	1	0	383269	10	382779	1	486	383265
TRSEscan	106	1	60.001	1	-835382713	5/6/2010	18:20:11	3	BlockProc	SessionList	2	1	4	18	NULL	NULL	NULL	NULL	18	4	62	Faces	NULL	NULL	NULL	Categorize	1	4390	0	390669	10	386379	0	NULL	NULL	face/m_134.bmp	NULL	NULL	NULL	NULL	NULL	NULL	Repeat	SFFSFSSSFSSFSSFFFSFF	NULL	NULL	NULL	TrialProc	Irrelevant	BlockList	1	1	0	386269	10	385779	1	422	386201
TRSEscan	106	1	60.001	1	-835382713	5/6/2010	18:20:11	3	BlockProc	SessionList	2	1	4	19	NULL	NULL	NULL	NULL	19	4	63	Scenes	NULL	NULL	NULL	Categorize	2	2390	0	393668	10	391378	3	NULL	NULL	scene/s_165.bmp	NULL	NULL	NULL	NULL	NULL	NULL	Novel	SFFSFSSSFSSFSSFFFSFF	NULL	NULL	NULL	TrialProc	Irrelevant	BlockList	1	2	0	391268	9	390778	2	495	391273
TRSEscan	106	1	60.001	1	-835382713	5/6/2010	18:20:11	3	BlockProc	SessionList	2	1	4	20	NULL	NULL	NULL	NULL	20	4	64	Faces	NULL	NULL	NULL	Categorize	1	6390	0	400668	10	394378	1	NULL	NULL	face/m_116.bmp	NULL	NULL	NULL	NULL	NULL	NULL	Novel	SFFSFSSSFSSFSSFFFSFF	NULL	NULL	NULL	TrialProc	Irrelevant	BlockList	1	1	0	394268	10	393778	1	503	394281
TRSEscan	106	1	60.001	1	-835382713	5/6/2010	18:20:11	3	BlockProc	SessionList	2	1	4	21	NULL	NULL	NULL	NULL	21	4	65	Faces	NULL	NULL	NULL	Categorize	1	4390	0	405668	10	401378	0	NULL	NULL	face/m_030.bmp	NULL	NULL	NULL	NULL	NULL	NULL	Novel	SFFSFSSSFSSFSSFFFSFF	NULL	NULL	NULL	TrialProc	Irrelevant	BlockList	1	1	0	401268	10	400778	1	903	401681
TRSEscan	106	1	60.001	1	-835382713	5/6/2010	18:20:11	3	BlockProc	SessionList	2	1	4	22	NULL	NULL	NULL	NULL	22	4	66		NULL	NULL	NULL	Categorize			NULL	NULL	NULL	NULL		420668	418778		NULL	NULL	NULL	NULL	NULL	NULL			NULL	NULL	NULL	FeedbackProc		BlockList	NULL	NULL	NULL	NULL	NULL	NULL	NULL	NULL	NULL
TRSEscan	106	1	60.001	1	-835382713	5/6/2010	18:20:11	4	BlockProc	SessionList	2	1	5	1	-999999	440112	10	420778	1	5	67		1	2	1353	Both			NULL	NULL	NULL	NULL		NULL	NULL		451600	1	442495	0	452600	451610			0	454500	452610	InstrProc		BlockList	NULL	NULL	NULL	NULL	NULL	NULL	NULL	NULL	NULL
TRSEscan	106	1	60.001	1	-835382713	5/6/2010	18:20:11	4	BlockProc	SessionList	2	1	5	2	NULL	NULL	NULL	NULL	2	5	68	Scenes	NULL	NULL	NULL	Both	1	4390	0	459500	10	455210	0	NULL	NULL	scene/s_287.bmp	NULL	NULL	NULL	NULL	NULL	NULL	Novel	SFFSFSSSFSSFSSFFFSFF	NULL	NULL	NULL	TrialProc	Relevant	BlockList	1	1	0	455100	10	454610	1	814	455424
TRSEscan	106	1	60.001	1	-835382713	5/6/2010	18:20:11	4	BlockProc	SessionList	2	1	5	3	NULL	NULL	NULL	NULL	3	5	69	Faces	NULL	NULL	NULL	Both	1	2390	0	462500	10	460210	1	NULL	NULL	face/m_144.bmp	NULL	NULL	NULL	NULL	NULL	NULL	Novel	SFFSFSSSFSSFSSFFFSFF	NULL	NULL	NULL	TrialProc	Relevant	BlockList	1	1	0	460100	10	459610	1	558	460168
TRSEscan	106	1	60.001	1	-835382713	5/6/2010	18:20:11	4	BlockProc	SessionList	2	1	5	4	NULL	NULL	NULL	NULL	4	5	70	Faces	NULL	NULL	NULL	Both	1	2390	0	465500	10	463210	0	NULL	NULL	face/m_015.bmp	NULL	NULL	NULL	NULL	NULL	NULL	Novel	SFFSFSSSFSSFSSFFFSFF	NULL	NULL	NULL	TrialProc	Relevant	BlockList	1	1	0	463100	10	462610	1	773	463383
TRSEscan	106	1	60.001	1	-835382713	5/6/2010	18:20:11	4	BlockProc	SessionList	2	1	5	5	NULL	NULL	NULL	NULL	5	5	71	Scenes	NULL	NULL	NULL	Both	1	4390	0	470500	10	466210	2	NULL	NULL	scene/s_195.bmp	NULL	NULL	NULL	NULL	NULL	NULL	Novel	SFFSFSSSFSSFSSFFFSFF	NULL	NULL	NULL	TrialProc	Relevant	BlockList	0	1	0	466100	10	465610	2	861	466471
TRSEscan	106	1	60.001	1	-835382713	5/6/2010	18:20:11	4	BlockProc	SessionList	2	1	5	6	NULL	NULL	NULL	NULL	6	5	72	Faces	NULL	NULL	NULL	Both	2	6390	0	477500	10	471210	1	NULL	NULL	face/m_015.bmp	NULL	NULL	NULL	NULL	NULL	NULL	Repeat	SFFSFSSSFSSFSSFFFSFF	NULL	NULL	NULL	TrialProc	Relevant	BlockList	0	2	0	471100	10	470610	1	573	471183
TRSEscan	106	1	60.001	1	-835382713	5/6/2010	18:20:11	4	BlockProc	SessionList	2	1	5	7	NULL	NULL	NULL	NULL	7	5	73	Scenes	NULL	NULL	NULL	Both	2	6390	0	484500	10	478210	1	NULL	NULL	scene/s_195.bmp	NULL	NULL	NULL	NULL	NULL	NULL	Repeat	SFFSFSSSFSSFSSFFFSFF	NULL	NULL	NULL	TrialProc	Relevant	BlockList	1	2	0	478100	10	477610	2	741	478351
TRSEscan	106	1	60.001	1	-835382713	5/6/2010	18:20:11	4	BlockProc	SessionList	2	1	5	8	NULL	NULL	NULL	NULL	8	5	74	Scenes	NULL	NULL	NULL	Both	1	4390	0	489500	10	485210	0	NULL	NULL	scene/s_108.bmp	NULL	NULL	NULL	NULL	NULL	NULL	Novel	SFFSFSSSFSSFSSFFFSFF	NULL	NULL	NULL	TrialProc	Relevant	BlockList	1	1	0	485100	10	484610	1	1173	485783
TRSEscan	106	1	60.001	1	-835382713	5/6/2010	18:20:11	4	BlockProc	SessionList	2	1	5	9	NULL	NULL	NULL	NULL	9	5	75	Scenes	NULL	NULL	NULL	Both	2	2390	0	492500	10	490210	0	NULL	NULL	scene/s_108.bmp	NULL	NULL	NULL	NULL	NULL	NULL	Repeat	SFFSFSSSFSSFSSFFFSFF	NULL	NULL	NULL	TrialProc	Relevant	BlockList	1	2	0	490100	10	489610	2	829	490439
TRSEscan	106	1	60.001	1	-835382713	5/6/2010	18:20:11	4	BlockProc	SessionList	2	1	5	10	NULL	NULL	NULL	NULL	10	5	76	Faces	NULL	NULL	NULL	Both	1	4390	0	497500	10	493210	3	NULL	NULL	face/f_140.bmp	NULL	NULL	NULL	NULL	NULL	NULL	Novel	SFFSFSSSFSSFSSFFFSFF	NULL	NULL	NULL	TrialProc	Relevant	BlockList	1	1	0	493100	10	492610	1	805	493415
TRSEscan	106	1	60.001	1	-835382713	5/6/2010	18:20:11	4	BlockProc	SessionList	2	1	5	11	NULL	NULL	NULL	NULL	11	5	77	Scenes	NULL	NULL	NULL	Both	2	6390	0	504499	9	498209	1	NULL	NULL	scene/s_108.bmp	NULL	NULL	NULL	NULL	NULL	NULL	Repeat	SFFSFSSSFSSFSSFFFSFF	NULL	NULL	NULL	TrialProc	Relevant	BlockList	1	2	0	498100	10	497610	2	749	498359
TRSEscan	106	1	60.001	1	-835382713	5/6/2010	18:20:11	4	BlockProc	SessionList	2	1	5	12	NULL	NULL	NULL	NULL	12	5	78	Scenes	NULL	NULL	NULL	Both	1	2390	0	507499	10	505209	0	NULL	NULL	scene/s_392.bmp	NULL	NULL	NULL	NULL	NULL	NULL	Novel	SFFSFSSSFSSFSSFFFSFF	NULL	NULL	NULL	TrialProc	Relevant	BlockList	1	1	0	505099	10	504609	1	1070	505679
TRSEscan	106	1	60.001	1	-835382713	5/6/2010	18:20:11	4	BlockProc	SessionList	2	1	5	13	NULL	NULL	NULL	NULL	13	5	79	Faces	NULL	NULL	NULL	Both	2	4390	0	512499	10	508209	2	NULL	NULL	face/f_140.bmp	NULL	NULL	NULL	NULL	NULL	NULL	Repeat	SFFSFSSSFSSFSSFFFSFF	NULL	NULL	NULL	TrialProc	Relevant	BlockList	1	2	0	508099	10	507609	2	958	508567
TRSEscan	106	1	60.001	1	-835382713	5/6/2010	18:20:11	4	BlockProc	SessionList	2	1	5	14	NULL	NULL	NULL	NULL	14	5	80	Scenes	NULL	NULL	NULL	Both	2	2390	0	515499	10	513209	1	NULL	NULL	scene/s_392.bmp	NULL	NULL	NULL	NULL	NULL	NULL	Repeat	SFFSFSSSFSSFSSFFFSFF	NULL	NULL	NULL	TrialProc	Relevant	BlockList	1	2	0	513099	10	512609	2	789	513398
TRSEscan	106	1	60.001	1	-835382713	5/6/2010	18:20:11	4	BlockProc	SessionList	2	1	5	15	NULL	NULL	NULL	NULL	15	5	81	Scenes	NULL	NULL	NULL	Both	1	6390	0	522499	10	516209	0	NULL	NULL	scene/s_388.bmp	NULL	NULL	NULL	NULL	NULL	NULL	Novel	SFFSFSSSFSSFSSFFFSFF	NULL	NULL	NULL	TrialProc	Relevant	BlockList	1	1	0	516099	10	515609	1	1077	516686
TRSEscan	106	1	60.001	1	-835382713	5/6/2010	18:20:11	4	BlockProc	SessionList	2	1	5	16	NULL	NULL	NULL	NULL	16	5	82	Faces	NULL	NULL	NULL	Both	2	6390	0	529499	10	523209	2	NULL	NULL	face/f_140.bmp	NULL	NULL	NULL	NULL	NULL	NULL	Repeat	SFFSFSSSFSSFSSFFFSFF	NULL	NULL	NULL	TrialProc	Relevant	BlockList	1	2	0	523099	10	522609	2	853	523462
TRSEscan	106	1	60.001	1	-835382713	5/6/2010	18:20:11	4	BlockProc	SessionList	2	1	5	17	NULL	NULL	NULL	NULL	17	5	83	Faces	NULL	NULL	NULL	Both	1	2390	0	532499	10	530209	0	NULL	NULL	face/m_010.bmp	NULL	NULL	NULL	NULL	NULL	NULL	Novel	SFFSFSSSFSSFSSFFFSFF	NULL	NULL	NULL	TrialProc	Relevant	BlockList	1	1	0	530099	10	529609	1	965	530574
TRSEscan	106	1	60.001	1	-835382713	5/6/2010	18:20:11	4	BlockProc	SessionList	2	1	5	18	NULL	NULL	NULL	NULL	18	5	84	Faces	NULL	NULL	NULL	Both	2	4390	0	537499	10	533209	0	NULL	NULL	face/m_010.bmp	NULL	NULL	NULL	NULL	NULL	NULL	Repeat	SFFSFSSSFSSFSSFFFSFF	NULL	NULL	NULL	TrialProc	Relevant	BlockList	1	2	0	533099	10	532609	2	789	533398
TRSEscan	106	1	60.001	1	-835382713	5/6/2010	18:20:11	4	BlockProc	SessionList	2	1	5	19	NULL	NULL	NULL	NULL	19	5	85	Scenes	NULL	NULL	NULL	Both	1	2390	0	540499	10	538209	3	NULL	NULL	scene/s_309.bmp	NULL	NULL	NULL	NULL	NULL	NULL	Novel	SFFSFSSSFSSFSSFFFSFF	NULL	NULL	NULL	TrialProc	Relevant	BlockList	1	1	0	538099	10	537609	1	805	538414
TRSEscan	106	1	60.001	1	-835382713	5/6/2010	18:20:11	4	BlockProc	SessionList	2	1	5	20	NULL	NULL	NULL	NULL	20	5	86	Faces	NULL	NULL	NULL	Both	1	6390	0	547499	10	541209	1	NULL	NULL	face/f_128.bmp	NULL	NULL	NULL	NULL	NULL	NULL	Novel	SFFSFSSSFSSFSSFFFSFF	NULL	NULL	NULL	TrialProc	Relevant	BlockList	1	1	0	541099	10	540609	1	941	541550
TRSEscan	106	1	60.001	1	-835382713	5/6/2010	18:20:11	4	BlockProc	SessionList	2	1	5	21	NULL	NULL	NULL	NULL	21	5	87	Faces	NULL	NULL	NULL	Both	1	4390	0	552498	10	548208	0	NULL	NULL	face/f_119.bmp	NULL	NULL	NULL	NULL	NULL	NULL	Novel	SFFSFSSSFSSFSSFFFSFF	NULL	NULL	NULL	TrialProc	Relevant	BlockList	1	1	0	548098	9	547608	1	1150	548758
TRSEscan	106	1	60.001	1	-835382713	5/6/2010	18:20:11	4	BlockProc	SessionList	2	1	5	22	NULL	NULL	NULL	NULL	22	5	88		NULL	NULL	NULL	Both			NULL	NULL	NULL	NULL		567498	565608		NULL	NULL	NULL	NULL	NULL	NULL			NULL	NULL	NULL	FeedbackProc		BlockList	NULL	NULL	NULL	NULL	NULL	NULL	NULL	NULL	NULL
TRSEscan	106	2	60.001	1	-248454241	5/6/2010	18:30:09	1	BlockProc	SessionList	2	2	1	1	-999999	55147	4	47130	1	2	1		1	2	1112	Scenes			NULL	NULL	NULL	NULL		NULL	NULL		66290	1	57281	0	67286	66296			0	69186	67296	InstrProc		BlockList	NULL	NULL	NULL	NULL	NULL	NULL	NULL	NULL	NULL
TRSEscan	106	2	60.001	1	-248454241	5/6/2010	18:30:09	1	BlockProc	SessionList	2	2	1	2	NULL	NULL	NULL	NULL	2	2	2	Faces	NULL	NULL	NULL	Scenes	1	2390	0	72186	10	69896	0	NULL	NULL	face/f_147.bmp	NULL	NULL	NULL	NULL	NULL	NULL	Novel	FFSFFFSSFSSFSSSFSFFS	NULL	NULL	NULL	TrialProc	Irrelevant	BlockList	1	1	0	69786	10	69296	1	490	69786
TRSEscan	106	2	60.001	1	-248454241	5/6/2010	18:30:09	1	BlockProc	SessionList	2	2	1	3	NULL	NULL	NULL	NULL	3	2	3	Faces	NULL	NULL	NULL	Scenes	1	4390	0	77186	10	72896	0	NULL	NULL	face/f_016.bmp	NULL	NULL	NULL	NULL	NULL	NULL	Novel	FFSFFFSSFSSFSSSFSFFS	NULL	NULL	NULL	TrialProc	Irrelevant	BlockList	1	1	0	72786	10	72296	1	506	72802
TRSEscan	106	2	60.001	1	-248454241	5/6/2010	18:30:09	1	BlockProc	SessionList	2	2	1	4	NULL	NULL	NULL	NULL	4	2	4	Scenes	NULL	NULL	NULL	Scenes	1	6390	0	84186	10	77896	2	NULL	NULL	scene/s_111.bmp	NULL	NULL	NULL	NULL	NULL	NULL	Novel	FFSFFFSSFSSFSSSFSFFS	NULL	NULL	NULL	TrialProc	Relevant	BlockList	1	1	0	77786	10	77296	1	610	77906
TRSEscan	106	2	60.001	1	-248454241	5/6/2010	18:30:09	1	BlockProc	SessionList	2	2	1	5	NULL	NULL	NULL	NULL	5	2	5	Faces	NULL	NULL	NULL	Scenes	1	4390	0	89186	10	84896	1	NULL	NULL	face/f_016.bmp	NULL	NULL	NULL	NULL	NULL	NULL	Repeat	FFSFFFSSFSSFSSSFSFFS	NULL	NULL	NULL	TrialProc	Irrelevant	BlockList	1	1	0	84786	10	84296	1	730	85026
TRSEscan	106	2	60.001	1	-248454241	5/6/2010	18:30:09	1	BlockProc	SessionList	2	2	1	6	NULL	NULL	NULL	NULL	6	2	6	Faces	NULL	NULL	NULL	Scenes	1	2390	0	92186	10	89896	0	NULL	NULL	face/f_016.bmp	NULL	NULL	NULL	NULL	NULL	NULL	Repeat	FFSFFFSSFSSFSSSFSFFS	NULL	NULL	NULL	TrialProc	Irrelevant	BlockList	1	1	0	89786	10	89296	1	506	89802
TRSEscan	106	2	60.001	1	-248454241	5/6/2010	18:30:09	1	BlockProc	SessionList	2	2	1	7	NULL	NULL	NULL	NULL	7	2	7	Faces	NULL	NULL	NULL	Scenes	1	6390	0	99185	10	92895	0	NULL	NULL	face/f_052.bmp	NULL	NULL	NULL	NULL	NULL	NULL	Novel	FFSFFFSSFSSFSSSFSFFS	NULL	NULL	NULL	TrialProc	Irrelevant	BlockList	1	1	0	92785	9	92295	1	699	92994
TRSEscan	106	2	60.001	1	-248454241	5/6/2010	18:30:09	1	BlockProc	SessionList	2	2	1	8	NULL	NULL	NULL	NULL	8	2	8	Scenes	NULL	NULL	NULL	Scenes	1	2390	0	102185	10	99895	3	NULL	NULL	scene/s_267.bmp	NULL	NULL	NULL	NULL	NULL	NULL	Novel	FFSFFFSSFSSFSSSFSFFS	NULL	NULL	NULL	TrialProc	Relevant	BlockList	1	1	0	99785	10	99295	1	707	100002
TRSEscan	106	2	60.001	1	-248454241	5/6/2010	18:30:09	1	BlockProc	SessionList	2	2	1	9	NULL	NULL	NULL	NULL	9	2	9	Scenes	NULL	NULL	NULL	Scenes	2	4390	0	107185	10	102895	0	NULL	NULL	scene/s_267.bmp	NULL	NULL	NULL	NULL	NULL	NULL	Repeat	FFSFFFSSFSSFSSSFSFFS	NULL	NULL	NULL	TrialProc	Relevant	BlockList	0	2	0	102785	10	102295	1	419	102714
TRSEscan	106	2	60.001	1	-248454241	5/6/2010	18:30:09	1	BlockProc	SessionList	2	2	1	10	NULL	NULL	NULL	NULL	10	2	10	Faces	NULL	NULL	NULL	Scenes	1	2390	0	110185	10	107895	2	NULL	NULL	face/f_052.bmp	NULL	NULL	NULL	NULL	NULL	NULL	Repeat	FFSFFFSSFSSFSSSFSFFS	NULL	NULL	NULL	TrialProc	Irrelevant	BlockList	1	1	0	107785	10	107295	1	594	107889
TRSEscan	106	2	60.001	1	-248454241	5/6/2010	18:30:09	1	BlockProc	SessionList	2	2	1	11	NULL	NULL	NULL	NULL	11	2	11	Scenes	NULL	NULL	NULL	Scenes	2	4390	0	115185	10	110895	1	NULL	NULL	scene/s_267.bmp	NULL	NULL	NULL	NULL	NULL	NULL	Repeat	FFSFFFSSFSSFSSSFSFFS	NULL	NULL	NULL	TrialProc	Relevant	BlockList	1	2	0	110785	10	110295	2	442	110737
TRSEscan	106	2	60.001	1	-248454241	5/6/2010	18:30:09	1	BlockProc	SessionList	2	2	1	12	NULL	NULL	NULL	NULL	12	2	12	Scenes	NULL	NULL	NULL	Scenes	1	6390	0	122185	10	115895	0	NULL	NULL	scene/s_294.bmp	NULL	NULL	NULL	NULL	NULL	NULL	Novel	FFSFFFSSFSSFSSSFSFFS	NULL	NULL	NULL	TrialProc	Relevant	BlockList	1	1	0	115785	10	115295	1	946	116241
TRSEscan	106	2	60.001	1	-248454241	5/6/2010	18:30:09	1	BlockProc	SessionList	2	2	1	13	NULL	NULL	NULL	NULL	13	2	13	Faces	NULL	NULL	NULL	Scenes	1	4390	0	127185	10	122895	2	NULL	NULL	face/m_126.bmp	NULL	NULL	NULL	NULL	NULL	NULL	Novel	FFSFFFSSFSSFSSSFSFFS	NULL	NULL	NULL	TrialProc	Irrelevant	BlockList	1	1	0	122785	10	122295	1	498	122793
TRSEscan	106	2	60.001	1	-248454241	5/6/2010	18:30:09	1	BlockProc	SessionList	2	2	1	14	NULL	NULL	NULL	NULL	14	2	14	Scenes	NULL	NULL	NULL	Scenes	2	2390	0	130185	10	127895	1	NULL	NULL	scene/s_294.bmp	NULL	NULL	NULL	NULL	NULL	NULL	Repeat	FFSFFFSSFSSFSSSFSFFS	NULL	NULL	NULL	TrialProc	Relevant	BlockList	1	2	0	127785	10	127295	2	482	127777
TRSEscan	106	2	60.001	1	-248454241	5/6/2010	18:30:09	1	BlockProc	SessionList	2	2	1	15	NULL	NULL	NULL	NULL	15	2	15	Scenes	NULL	NULL	NULL	Scenes	1	6390	0	137185	10	130895	0	NULL	NULL	scene/s_238.bmp	NULL	NULL	NULL	NULL	NULL	NULL	Novel	FFSFFFSSFSSFSSSFSFFS	NULL	NULL	NULL	TrialProc	Relevant	BlockList	1	1	0	130785	10	130295	1	578	130873
TRSEscan	106	2	60.001	1	-248454241	5/6/2010	18:30:09	1	BlockProc	SessionList	2	2	1	16	NULL	NULL	NULL	NULL	16	2	16	Scenes	NULL	NULL	NULL	Scenes	1	4390	0	142184	9	137894	0	NULL	NULL	scene/s_277.bmp	NULL	NULL	NULL	NULL	NULL	NULL	Novel	FFSFFFSSFSSFSSSFSFFS	NULL	NULL	NULL	TrialProc	Relevant	BlockList	1	1	0	137785	10	137295	1	506	137801
TRSEscan	106	2	60.001	1	-248454241	5/6/2010	18:30:09	1	BlockProc	SessionList	2	2	1	17	NULL	NULL	NULL	NULL	17	2	17	Faces	NULL	NULL	NULL	Scenes	1	6390	0	149184	10	142894	3	NULL	NULL	face/f_129.bmp	NULL	NULL	NULL	NULL	NULL	NULL	Novel	FFSFFFSSFSSFSSSFSFFS	NULL	NULL	NULL	TrialProc	Irrelevant	BlockList	1	1	0	142784	10	142294	1	531	142825
TRSEscan	106	2	60.001	1	-248454241	5/6/2010	18:30:09	1	BlockProc	SessionList	2	2	1	18	NULL	NULL	NULL	NULL	18	2	18	Scenes	NULL	NULL	NULL	Scenes	2	2390	0	152184	10	149894	1	NULL	NULL	scene/s_277.bmp	NULL	NULL	NULL	NULL	NULL	NULL	Repeat	FFSFFFSSFSSFSSSFSFFS	NULL	NULL	NULL	TrialProc	Relevant	BlockList	1	2	0	149784	10	149294	2	771	150065
TRSEscan	106	2	60.001	1	-248454241	5/6/2010	18:30:09	1	BlockProc	SessionList	2	2	1	19	NULL	NULL	NULL	NULL	19	2	19	Faces	NULL	NULL	NULL	Scenes	1	2390	0	155184	10	152894	1	NULL	NULL	face/f_129.bmp	NULL	NULL	NULL	NULL	NULL	NULL	Repeat	FFSFFFSSFSSFSSSFSFFS	NULL	NULL	NULL	TrialProc	Irrelevant	BlockList	1	1	0	152784	10	152294	1	451	152745
TRSEscan	106	2	60.001	1	-248454241	5/6/2010	18:30:09	1	BlockProc	SessionList	2	2	1	20	NULL	NULL	NULL	NULL	20	2	20	Faces	NULL	NULL	NULL	Scenes	1	6390	0	162184	10	155894	0	NULL	NULL	face/m_032.bmp	NULL	NULL	NULL	NULL	NULL	NULL	Novel	FFSFFFSSFSSFSSSFSFFS	NULL	NULL	NULL	TrialProc	Irrelevant	BlockList	1	1	0	155784	10	155294	1	506	155800
TRSEscan	106	2	60.001	1	-248454241	5/6/2010	18:30:09	1	BlockProc	SessionList	2	2	1	21	NULL	NULL	NULL	NULL	21	2	21	Scenes	NULL	NULL	NULL	Scenes	1	4390	0	167184	10	162894	2	NULL	NULL	scene/s_154.bmp	NULL	NULL	NULL	NULL	NULL	NULL	Novel	FFSFFFSSFSSFSSSFSFFS	NULL	NULL	NULL	TrialProc	Relevant	BlockList	1	1	0	162784	10	162294	1	538	162832
TRSEscan	106	2	60.001	1	-248454241	5/6/2010	18:30:09	1	BlockProc	SessionList	2	2	1	22	NULL	NULL	NULL	NULL	22	2	22		NULL	NULL	NULL	Scenes			NULL	NULL	NULL	NULL		182184	180294		NULL	NULL	NULL	NULL	NULL	NULL			NULL	NULL	NULL	FeedbackProc		BlockList	NULL	NULL	NULL	NULL	NULL	NULL	NULL	NULL	NULL
TRSEscan	106	2	60.001	1	-248454241	5/6/2010	18:30:09	2	BlockProc	SessionList	2	2	2	1	-999999	189712	10	182294	1	3	23		1	2	1225	Categorize			NULL	NULL	NULL	NULL		NULL	NULL		201168	1	191961	0	202166	201176			0	204066	202176	InstrProc		BlockList	NULL	NULL	NULL	NULL	NULL	NULL	NULL	NULL	NULL
TRSEscan	106	2	60.001	1	-248454241	5/6/2010	18:30:09	2	BlockProc	SessionList	2	2	2	2	NULL	NULL	NULL	NULL	2	3	24	Faces	NULL	NULL	NULL	Categorize	1	2390	0	207066	10	204776	0	NULL	NULL	face/f_011.bmp	NULL	NULL	NULL	NULL	NULL	NULL	Novel	FFSFFFSSFSSFSSSFSFFS	NULL	NULL	NULL	TrialProc	Irrelevant	BlockList	1	1	0	204666	10	204176	1	472	204648
TRSEscan	106	2	60.001	1	-248454241	5/6/2010	18:30:09	2	BlockProc	SessionList	2	2	2	3	NULL	NULL	NULL	NULL	3	3	25	Faces	NULL	NULL	NULL	Categorize	1	4390	0	212066	10	207776	0	NULL	NULL	face/f_038.bmp	NULL	NULL	NULL	NULL	NULL	NULL	Novel	FFSFFFSSFSSFSSSFSFFS	NULL	NULL	NULL	TrialProc	Irrelevant	BlockList	1	1	0	207666	10	207176	1	495	207671
TRSEscan	106	2	60.001	1	-248454241	5/6/2010	18:30:09	2	BlockProc	SessionList	2	2	2	4	NULL	NULL	NULL	NULL	4	3	26	Scenes	NULL	NULL	NULL	Categorize	2	6390	0	219066	10	212776	2	NULL	NULL	scene/s_153.bmp	NULL	NULL	NULL	NULL	NULL	NULL	Novel	FFSFFFSSFSSFSSSFSFFS	NULL	NULL	NULL	TrialProc	Irrelevant	BlockList	1	2	0	212666	10	212176	2	495	212671
TRSEscan	106	2	60.001	1	-248454241	5/6/2010	18:30:09	2	BlockProc	SessionList	2	2	2	5	NULL	NULL	NULL	NULL	5	3	27	Faces	NULL	NULL	NULL	Categorize	1	4390	0	224066	10	219776	1	NULL	NULL	face/f_038.bmp	NULL	NULL	NULL	NULL	NULL	NULL	Repeat	FFSFFFSSFSSFSSSFSFFS	NULL	NULL	NULL	TrialProc	Irrelevant	BlockList	1	1	0	219666	10	219176	1	495	219671
TRSEscan	106	2	60.001	1	-248454241	5/6/2010	18:30:09	2	BlockProc	SessionList	2	2	2	6	NULL	NULL	NULL	NULL	6	3	28	Faces	NULL	NULL	NULL	Categorize	1	2390	0	227066	10	224776	0	NULL	NULL	face/f_038.bmp	NULL	NULL	NULL	NULL	NULL	NULL	Repeat	FFSFFFSSFSSFSSSFSFFS	NULL	NULL	NULL	TrialProc	Irrelevant	BlockList	1	1	0	224666	10	224176	1	535	224711
TRSEscan	106	2	60.001	1	-248454241	5/6/2010	18:30:09	2	BlockProc	SessionList	2	2	2	7	NULL	NULL	NULL	NULL	7	3	29	Faces	NULL	NULL	NULL	Categorize	1	6390	0	234066	10	227776	0	NULL	NULL	face/m_129.bmp	NULL	NULL	NULL	NULL	NULL	NULL	Novel	FFSFFFSSFSSFSSSFSFFS	NULL	NULL	NULL	TrialProc	Irrelevant	BlockList	1	1	0	227666	10	227176	1	591	227767
TRSEscan	106	2	60.001	1	-248454241	5/6/2010	18:30:09	2	BlockProc	SessionList	2	2	2	8	NULL	NULL	NULL	NULL	8	3	30	Scenes	NULL	NULL	NULL	Categorize	2	2390	0	237066	10	234776	3	NULL	NULL	scene/s_008.bmp	NULL	NULL	NULL	NULL	NULL	NULL	Novel	FFSFFFSSFSSFSSSFSFFS	NULL	NULL	NULL	TrialProc	Irrelevant	BlockList	1	2	0	234666	10	234176	2	415	234591
TRSEscan	106	2	60.001	1	-248454241	5/6/2010	18:30:09	2	BlockProc	SessionList	2	2	2	9	NULL	NULL	NULL	NULL	9	3	31	Scenes	NULL	NULL	NULL	Categorize	2	4390	0	242066	10	237776	0	NULL	NULL	scene/s_008.bmp	NULL	NULL	NULL	NULL	NULL	NULL	Repeat	FFSFFFSSFSSFSSSFSFFS	NULL	NULL	NULL	TrialProc	Irrelevant	BlockList	1	2	0	237666	10	237176	2	559	237735
TRSEscan	106	2	60.001	1	-248454241	5/6/2010	18:30:09	2	BlockProc	SessionList	2	2	2	10	NULL	NULL	NULL	NULL	10	3	32	Faces	NULL	NULL	NULL	Categorize	1	2390	0	245066	10	242776	2	NULL	NULL	face/m_129.bmp	NULL	NULL	NULL	NULL	NULL	NULL	Repeat	FFSFFFSSFSSFSSSFSFFS	NULL	NULL	NULL	TrialProc	Irrelevant	BlockList	1	1	0	242666	10	242176	1	527	242703
TRSEscan	106	2	60.001	1	-248454241	5/6/2010	18:30:09	2	BlockProc	SessionList	2	2	2	11	NULL	NULL	NULL	NULL	11	3	33	Scenes	NULL	NULL	NULL	Categorize	2	4390	0	250066	10	245776	1	NULL	NULL	scene/s_008.bmp	NULL	NULL	NULL	NULL	NULL	NULL	Repeat	FFSFFFSSFSSFSSSFSFFS	NULL	NULL	NULL	TrialProc	Irrelevant	BlockList	1	2	0	245666	10	245176	2	567	245743
TRSEscan	106	2	60.001	1	-248454241	5/6/2010	18:30:09	2	BlockProc	SessionList	2	2	2	12	NULL	NULL	NULL	NULL	12	3	34	Scenes	NULL	NULL	NULL	Categorize	2	6390	0	257065	10	250775	0	NULL	NULL	scene/s_315.bmp	NULL	NULL	NULL	NULL	NULL	NULL	Novel	FFSFFFSSFSSFSSSFSFFS	NULL	NULL	NULL	TrialProc	Irrelevant	BlockList	1	2	0	250665	9	250175	2	528	250703
TRSEscan	106	2	60.001	1	-248454241	5/6/2010	18:30:09	2	BlockProc	SessionList	2	2	2	13	NULL	NULL	NULL	NULL	13	3	35	Faces	NULL	NULL	NULL	Categorize	1	4390	0	262065	10	257775	2	NULL	NULL	face/m_013.bmp	NULL	NULL	NULL	NULL	NULL	NULL	Novel	FFSFFFSSFSSFSSSFSFFS	NULL	NULL	NULL	TrialProc	Irrelevant	BlockList	1	1	0	257665	10	257175	1	479	257654
TRSEscan	106	2	60.001	1	-248454241	5/6/2010	18:30:09	2	BlockProc	SessionList	2	2	2	14	NULL	NULL	NULL	NULL	14	3	36	Scenes	NULL	NULL	NULL	Categorize	2	2390	0	265065	10	262775	1	NULL	NULL	scene/s_315.bmp	NULL	NULL	NULL	NULL	NULL	NULL	Repeat	FFSFFFSSFSSFSSSFSFFS	NULL	NULL	NULL	TrialProc	Irrelevant	BlockList	1	2	0	262665	10	262175	2	495	262670
TRSEscan	106	2	60.001	1	-248454241	5/6/2010	18:30:09	2	BlockProc	SessionList	2	2	2	15	NULL	NULL	NULL	NULL	15	3	37	Scenes	NULL	NULL	NULL	Categorize	2	6390	0	272065	10	265775	0	NULL	NULL	scene/s_202.bmp	NULL	NULL	NULL	NULL	NULL	NULL	Novel	FFSFFFSSFSSFSSSFSFFS	NULL	NULL	NULL	TrialProc	Irrelevant	BlockList	1	2	0	265665	10	265175	2	495	265670
TRSEscan	106	2	60.001	1	-248454241	5/6/2010	18:30:09	2	BlockProc	SessionList	2	2	2	16	NULL	NULL	NULL	NULL	16	3	38	Scenes	NULL	NULL	NULL	Categorize	2	4390	0	277065	10	272775	0	NULL	NULL	scene/s_030.bmp	NULL	NULL	NULL	NULL	NULL	NULL	Novel	FFSFFFSSFSSFSSSFSFFS	NULL	NULL	NULL	TrialProc	Irrelevant	BlockList	1	2	0	272665	10	272175	2	495	272670
TRSEscan	106	2	60.001	1	-248454241	5/6/2010	18:30:09	2	BlockProc	SessionList	2	2	2	17	NULL	NULL	NULL	NULL	17	3	39	Faces	NULL	NULL	NULL	Categorize	1	6390	0	284065	10	277775	3	NULL	NULL	face/f_066.bmp	NULL	NULL	NULL	NULL	NULL	NULL	Novel	FFSFFFSSFSSFSSSFSFFS	NULL	NULL	NULL	TrialProc	Irrelevant	BlockList	1	1	0	277665	10	277175	1	527	277702
TRSEscan	106	2	60.001	1	-248454241	5/6/2010	18:30:09	2	BlockProc	SessionList	2	2	2	18	NULL	NULL	NULL	NULL	18	3	40	Scenes	NULL	NULL	NULL	Categorize	2	2390	0	287065	10	284775	1	NULL	NULL	scene/s_030.bmp	NULL	NULL	NULL	NULL	NULL	NULL	Repeat	FFSFFFSSFSSFSSSFSFFS	NULL	NULL	NULL	TrialProc	Irrelevant	BlockList	1	2	0	284665	10	284175	2	519	284694
TRSEscan	106	2	60.001	1	-248454241	5/6/2010	18:30:09	2	BlockProc	SessionList	2	2	2	19	NULL	NULL	NULL	NULL	19	3	41	Faces	NULL	NULL	NULL	Categorize	1	2390	0	290065	10	287775	1	NULL	NULL	face/f_066.bmp	NULL	NULL	NULL	NULL	NULL	NULL	Repeat	FFSFFFSSFSSFSSSFSFFS	NULL	NULL	NULL	TrialProc	Irrelevant	BlockList	1	1	0	287665	10	287175	1	559	287734
TRSEscan	106	2	60.001	1	-248454241	5/6/2010	18:30:09	2	BlockProc	SessionList	2	2	2	20	NULL	NULL	NULL	NULL	20	3	42	Faces	NULL	NULL	NULL	Categorize	1	6390	0	297065	10	290775	0	NULL	NULL	face/f_062.bmp	NULL	NULL	NULL	NULL	NULL	NULL	Novel	FFSFFFSSFSSFSSSFSFFS	NULL	NULL	NULL	TrialProc	Irrelevant	BlockList	1	1	0	290665	10	290175	1	535	290710
TRSEscan	106	2	60.001	1	-248454241	5/6/2010	18:30:09	2	BlockProc	SessionList	2	2	2	21	NULL	NULL	NULL	NULL	21	3	43	Scenes	NULL	NULL	NULL	Categorize	2	4390	0	302064	10	297774	2	NULL	NULL	scene/s_257.bmp	NULL	NULL	NULL	NULL	NULL	NULL	Novel	FFSFFFSSFSSFSSSFSFFS	NULL	NULL	NULL	TrialProc	Irrelevant	BlockList	1	2	0	297664	9	297174	2	424	297598
TRSEscan	106	2	60.001	1	-248454241	5/6/2010	18:30:09	2	BlockProc	SessionList	2	2	2	22	NULL	NULL	NULL	NULL	22	3	44		NULL	NULL	NULL	Categorize			NULL	NULL	NULL	NULL		317064	315174		NULL	NULL	NULL	NULL	NULL	NULL			NULL	NULL	NULL	FeedbackProc		BlockList	NULL	NULL	NULL	NULL	NULL	NULL	NULL	NULL	NULL
TRSEscan	106	2	60.001	1	-248454241	5/6/2010	18:30:09	3	BlockProc	SessionList	2	2	3	1	-999999	324373	10	317174	1	4	45		1	2	1070	Both			NULL	NULL	NULL	NULL		NULL	NULL		337037	1	326458	0	338030	337040			0	339930	338040	InstrProc		BlockList	NULL	NULL	NULL	NULL	NULL	NULL	NULL	NULL	NULL
TRSEscan	106	2	60.001	1	-248454241	5/6/2010	18:30:09	3	BlockProc	SessionList	2	2	3	2	NULL	NULL	NULL	NULL	2	4	46	Faces	NULL	NULL	NULL	Both	1	2390	0	342930	10	340640	0	NULL	NULL	face/m_146.bmp	NULL	NULL	NULL	NULL	NULL	NULL	Novel	FFSFFFSSFSSFSSSFSFFS	NULL	NULL	NULL	TrialProc	Relevant	BlockList	1	1	0	340530	10	340040	1	493	340533
TRSEscan	106	2	60.001	1	-248454241	5/6/2010	18:30:09	3	BlockProc	SessionList	2	2	3	3	NULL	NULL	NULL	NULL	3	4	47	Faces	NULL	NULL	NULL	Both	1	4390	0	347930	10	343640	0	NULL	NULL	face/m_066.bmp	NULL	NULL	NULL	NULL	NULL	NULL	Novel	FFSFFFSSFSSFSSSFSFFS	NULL	NULL	NULL	TrialProc	Relevant	BlockList	1	1	0	343530	10	343040	1	517	343557
TRSEscan	106	2	60.001	1	-248454241	5/6/2010	18:30:09	3	BlockProc	SessionList	2	2	3	4	NULL	NULL	NULL	NULL	4	4	48	Scenes	NULL	NULL	NULL	Both	1	6390	0	354930	10	348640	2	NULL	NULL	scene/s_364.bmp	NULL	NULL	NULL	NULL	NULL	NULL	Novel	FFSFFFSSFSSFSSSFSFFS	NULL	NULL	NULL	TrialProc	Relevant	BlockList	1	1	0	348530	10	348040	1	844	348884
TRSEscan	106	2	60.001	1	-248454241	5/6/2010	18:30:09	3	BlockProc	SessionList	2	2	3	5	NULL	NULL	NULL	NULL	5	4	49	Faces	NULL	NULL	NULL	Both	2	4390	0	359930	10	355640	1	NULL	NULL	face/m_066.bmp	NULL	NULL	NULL	NULL	NULL	NULL	Repeat	FFSFFFSSFSSFSSSFSFFS	NULL	NULL	NULL	TrialProc	Relevant	BlockList	1	2	0	355530	10	355040	2	460	355500
TRSEscan	106	2	60.001	1	-248454241	5/6/2010	18:30:09	3	BlockProc	SessionList	2	2	3	6	NULL	NULL	NULL	NULL	6	4	50	Faces	NULL	NULL	NULL	Both	2	2390	0	362930	10	360640	0	NULL	NULL	face/m_066.bmp	NULL	NULL	NULL	NULL	NULL	NULL	Repeat	FFSFFFSSFSSFSSSFSFFS	NULL	NULL	NULL	TrialProc	Relevant	BlockList	1	2	0	360530	10	360040	2	692	360732
TRSEscan	106	2	60.001	1	-248454241	5/6/2010	18:30:09	3	BlockProc	SessionList	2	2	3	7	NULL	NULL	NULL	NULL	7	4	51	Faces	NULL	NULL	NULL	Both	1	6390	0	369930	10	363640	0	NULL	NULL	face/m_017.bmp	NULL	NULL	NULL	NULL	NULL	NULL	Novel	FFSFFFSSFSSFSSSFSFFS	NULL	NULL	NULL	TrialProc	Relevant	BlockList	1	1	0	363530	10	363040	1	524	363564
TRSEscan	106	2	60.001	1	-248454241	5/6/2010	18:30:09	3	BlockProc	SessionList	2	2	3	8	NULL	NULL	NULL	NULL	8	4	52	Scenes	NULL	NULL	NULL	Both	1	2390	0	372930	10	370640	3	NULL	NULL	scene/s_337.bmp	NULL	NULL	NULL	NULL	NULL	NULL	Novel	FFSFFFSSFSSFSSSFSFFS	NULL	NULL	NULL	TrialProc	Relevant	BlockList	1	1	0	370530	10	370040	1	636	370676
TRSEscan	106	2	60.001	1	-248454241	5/6/2010	18:30:09	3	BlockProc	SessionList	2	2	3	9	NULL	NULL	NULL	NULL	9	4	53	Scenes	NULL	NULL	NULL	Both	2	4390	0	377930	10	373640	0	NULL	NULL	scene/s_337.bmp	NULL	NULL	NULL	NULL	NULL	NULL	Repeat	FFSFFFSSFSSFSSSFSFFS	NULL	NULL	NULL	TrialProc	Relevant	BlockList	1	2	0	373530	10	373040	2	556	373596
TRSEscan	106	2	60.001	1	-248454241	5/6/2010	18:30:09	3	BlockProc	SessionList	2	2	3	10	NULL	NULL	NULL	NULL	10	4	54	Faces	NULL	NULL	NULL	Both	2	2390	0	380929	10	378639	2	NULL	NULL	face/m_017.bmp	NULL	NULL	NULL	NULL	NULL	NULL	Repeat	FFSFFFSSFSSFSSSFSFFS	NULL	NULL	NULL	TrialProc	Relevant	BlockList	0	2	0	378529	9	378039	1	757	378796
TRSEscan	106	2	60.001	1	-248454241	5/6/2010	18:30:09	3	BlockProc	SessionList	2	2	3	11	NULL	NULL	NULL	NULL	11	4	55	Scenes	NULL	NULL	NULL	Both	2	4390	0	385929	10	381639	1	NULL	NULL	scene/s_337.bmp	NULL	NULL	NULL	NULL	NULL	NULL	Repeat	FFSFFFSSFSSFSSSFSFFS	NULL	NULL	NULL	TrialProc	Relevant	BlockList	1	2	0	381529	10	381039	2	525	381564
TRSEscan	106	2	60.001	1	-248454241	5/6/2010	18:30:09	3	BlockProc	SessionList	2	2	3	12	NULL	NULL	NULL	NULL	12	4	56	Scenes	NULL	NULL	NULL	Both	1	6390	0	392929	10	386639	0	NULL	NULL	scene/s_329.bmp	NULL	NULL	NULL	NULL	NULL	NULL	Novel	FFSFFFSSFSSFSSSFSFFS	NULL	NULL	NULL	TrialProc	Relevant	BlockList	1	1	0	386529	10	386039	1	613	386652
TRSEscan	106	2	60.001	1	-248454241	5/6/2010	18:30:09	3	BlockProc	SessionList	2	2	3	13	NULL	NULL	NULL	NULL	13	4	57	Faces	NULL	NULL	NULL	Both	1	4390	0	397929	10	393639	2	NULL	NULL	face/f_071.bmp	NULL	NULL	NULL	NULL	NULL	NULL	Novel	FFSFFFSSFSSFSSSFSFFS	NULL	NULL	NULL	TrialProc	Relevant	BlockList	1	1	0	393529	10	393039	1	532	393571
TRSEscan	106	2	60.001	1	-248454241	5/6/2010	18:30:09	3	BlockProc	SessionList	2	2	3	14	NULL	NULL	NULL	NULL	14	4	58	Scenes	NULL	NULL	NULL	Both	2	2390	0	400929	10	398639	1	NULL	NULL	scene/s_329.bmp	NULL	NULL	NULL	NULL	NULL	NULL	Repeat	FFSFFFSSFSSFSSSFSFFS	NULL	NULL	NULL	TrialProc	Relevant	BlockList	1	2	0	398529	10	398039	2	516	398555
TRSEscan	106	2	60.001	1	-248454241	5/6/2010	18:30:09	3	BlockProc	SessionList	2	2	3	15	NULL	NULL	NULL	NULL	15	4	59	Scenes	NULL	NULL	NULL	Both	1	6390	0	407929	10	401639	0	NULL	NULL	scene/s_405.bmp	NULL	NULL	NULL	NULL	NULL	NULL	Novel	FFSFFFSSFSSFSSSFSFFS	NULL	NULL	NULL	TrialProc	Relevant	BlockList	1	1	0	401529	10	401039	1	604	401643
TRSEscan	106	2	60.001	1	-248454241	5/6/2010	18:30:09	3	BlockProc	SessionList	2	2	3	16	NULL	NULL	NULL	NULL	16	4	60	Scenes	NULL	NULL	NULL	Both	1	4390	0	412929	10	408639	0	NULL	NULL	scene/s_400.bmp	NULL	NULL	NULL	NULL	NULL	NULL	Novel	FFSFFFSSFSSFSSSFSFFS	NULL	NULL	NULL	TrialProc	Relevant	BlockList	1	1	0	408529	10	408039	1	716	408755
TRSEscan	106	2	60.001	1	-248454241	5/6/2010	18:30:09	3	BlockProc	SessionList	2	2	3	17	NULL	NULL	NULL	NULL	17	4	61	Faces	NULL	NULL	NULL	Both	1	6390	0	419929	10	413639	3	NULL	NULL	face/f_034.bmp	NULL	NULL	NULL	NULL	NULL	NULL	Novel	FFSFFFSSFSSFSSSFSFFS	NULL	NULL	NULL	TrialProc	Relevant	BlockList	1	1	0	413529	10	413039	1	540	413579
TRSEscan	106	2	60.001	1	-248454241	5/6/2010	18:30:09	3	BlockProc	SessionList	2	2	3	18	NULL	NULL	NULL	NULL	18	4	62	Scenes	NULL	NULL	NULL	Both	2	2390	0	422929	10	420639	1	NULL	NULL	scene/s_400.bmp	NULL	NULL	NULL	NULL	NULL	NULL	Repeat	FFSFFFSSFSSFSSSFSFFS	NULL	NULL	NULL	TrialProc	Relevant	BlockList	1	2	0	420529	10	420039	2	660	420699
TRSEscan	106	2	60.001	1	-248454241	5/6/2010	18:30:09	3	BlockProc	SessionList	2	2	3	19	NULL	NULL	NULL	NULL	19	4	63	Faces	NULL	NULL	NULL	Both	2	2390	0	425928	10	423638	1	NULL	NULL	face/f_034.bmp	NULL	NULL	NULL	NULL	NULL	NULL	Repeat	FFSFFFSSFSSFSSSFSFFS	NULL	NULL	NULL	TrialProc	Relevant	BlockList	1	2	0	423528	9	423038	2	829	423867
TRSEscan	106	2	60.001	1	-248454241	5/6/2010	18:30:09	3	BlockProc	SessionList	2	2	3	20	NULL	NULL	NULL	NULL	20	4	64	Faces	NULL	NULL	NULL	Both	1	6390	0	432928	10	426638	0	NULL	NULL	face/f_135.bmp	NULL	NULL	NULL	NULL	NULL	NULL	Novel	FFSFFFSSFSSFSSSFSFFS	NULL	NULL	NULL	TrialProc	Relevant	BlockList	1	1	0	426528	10	426038	1	557	426595
TRSEscan	106	2	60.001	1	-248454241	5/6/2010	18:30:09	3	BlockProc	SessionList	2	2	3	21	NULL	NULL	NULL	NULL	21	4	65	Scenes	NULL	NULL	NULL	Both	1	4390	0	437928	10	433638	2	NULL	NULL	scene/s_080.bmp	NULL	NULL	NULL	NULL	NULL	NULL	Novel	FFSFFFSSFSSFSSSFSFFS	NULL	NULL	NULL	TrialProc	Relevant	BlockList	1	1	0	433528	10	433038	1	645	433683
TRSEscan	106	2	60.001	1	-248454241	5/6/2010	18:30:09	3	BlockProc	SessionList	2	2	3	22	NULL	NULL	NULL	NULL	22	4	66		NULL	NULL	NULL	Both			NULL	NULL	NULL	NULL		452928	451038		NULL	NULL	NULL	NULL	NULL	NULL			NULL	NULL	NULL	FeedbackProc		BlockList	NULL	NULL	NULL	NULL	NULL	NULL	NULL	NULL	NULL
TRSEscan	106	2	60.001	1	-248454241	5/6/2010	18:30:09	4	BlockProc	SessionList	2	2	4	1	-999999	460250	10	453038	1	5	67		1	2	1052	Faces			NULL	NULL	NULL	NULL		NULL	NULL		472698	1	462322	0	473694	472704			0	475594	473704	InstrProc		BlockList	NULL	NULL	NULL	NULL	NULL	NULL	NULL	NULL	NULL
TRSEscan	106	2	60.001	1	-248454241	5/6/2010	18:30:09	4	BlockProc	SessionList	2	2	4	2	NULL	NULL	NULL	NULL	2	5	68	Faces	NULL	NULL	NULL	Faces	1	2390	0	478594	10	476304	0	NULL	NULL	face/f_093.bmp	NULL	NULL	NULL	NULL	NULL	NULL	Novel	FFSFFFSSFSSFSSSFSFFS	NULL	NULL	NULL	TrialProc	Relevant	BlockList	1	1	0	476194	10	475704	1	466	476170
TRSEscan	106	2	60.001	1	-248454241	5/6/2010	18:30:09	4	BlockProc	SessionList	2	2	4	3	NULL	NULL	NULL	NULL	3	5	69	Faces	NULL	NULL	NULL	Faces	1	4390	0	483594	10	479304	0	NULL	NULL	face/m_020.bmp	NULL	NULL	NULL	NULL	NULL	NULL	Novel	FFSFFFSSFSSFSSSFSFFS	NULL	NULL	NULL	TrialProc	Relevant	BlockList	1	1	0	479194	10	478704	1	746	479450
TRSEscan	106	2	60.001	1	-248454241	5/6/2010	18:30:09	4	BlockProc	SessionList	2	2	4	4	NULL	NULL	NULL	NULL	4	5	70	Scenes	NULL	NULL	NULL	Faces	1	6390	0	490594	10	484304	2	NULL	NULL	scene/s_437.bmp	NULL	NULL	NULL	NULL	NULL	NULL	Novel	FFSFFFSSFSSFSSSFSFFS	NULL	NULL	NULL	TrialProc	Irrelevant	BlockList	1	1	0	484194	10	483704	1	610	484314
TRSEscan	106	2	60.001	1	-248454241	5/6/2010	18:30:09	4	BlockProc	SessionList	2	2	4	5	NULL	NULL	NULL	NULL	5	5	71	Faces	NULL	NULL	NULL	Faces	2	4390	0	495594	10	491304	1	NULL	NULL	face/m_020.bmp	NULL	NULL	NULL	NULL	NULL	NULL	Repeat	FFSFFFSSFSSFSSSFSFFS	NULL	NULL	NULL	TrialProc	Relevant	BlockList	1	2	0	491194	10	490704	2	626	491330
TRSEscan	106	2	60.001	1	-248454241	5/6/2010	18:30:09	4	BlockProc	SessionList	2	2	4	6	NULL	NULL	NULL	NULL	6	5	72	Faces	NULL	NULL	NULL	Faces	2	2390	0	498594	10	496304	0	NULL	NULL	face/m_020.bmp	NULL	NULL	NULL	NULL	NULL	NULL	Repeat	FFSFFFSSFSSFSSSFSFFS	NULL	NULL	NULL	TrialProc	Relevant	BlockList	1	2	0	496194	10	495704	2	569	496273
TRSEscan	106	2	60.001	1	-248454241	5/6/2010	18:30:09	4	BlockProc	SessionList	2	2	4	7	NULL	NULL	NULL	NULL	7	5	73	Faces	NULL	NULL	NULL	Faces	1	6390	0	505594	10	499304	0	NULL	NULL	face/f_060.bmp	NULL	NULL	NULL	NULL	NULL	NULL	Novel	FFSFFFSSFSSFSSSFSFFS	NULL	NULL	NULL	TrialProc	Relevant	BlockList	1	1	0	499194	10	498704	1	513	499217
TRSEscan	106	2	60.001	1	-248454241	5/6/2010	18:30:09	4	BlockProc	SessionList	2	2	4	8	NULL	NULL	NULL	NULL	8	5	74	Scenes	NULL	NULL	NULL	Faces	1	2390	0	508593	10	506303	3	NULL	NULL	scene/s_206.bmp	NULL	NULL	NULL	NULL	NULL	NULL	Novel	FFSFFFSSFSSFSSSFSFFS	NULL	NULL	NULL	TrialProc	Irrelevant	BlockList	1	1	0	506193	9	505703	1	666	506369
TRSEscan	106	2	60.001	1	-248454241	5/6/2010	18:30:09	4	BlockProc	SessionList	2	2	4	9	NULL	NULL	NULL	NULL	9	5	75	Scenes	NULL	NULL	NULL	Faces	1	4390	0	513593	10	509303	0	NULL	NULL	scene/s_206.bmp	NULL	NULL	NULL	NULL	NULL	NULL	Repeat	FFSFFFSSFSSFSSSFSFFS	NULL	NULL	NULL	TrialProc	Irrelevant	BlockList	0	1	0	509193	10	508703	2	714	509417
TRSEscan	106	2	60.001	1	-248454241	5/6/2010	18:30:09	4	BlockProc	SessionList	2	2	4	10	NULL	NULL	NULL	NULL	10	5	76	Faces	NULL	NULL	NULL	Faces	2	2390	0	516593	10	514303	2	NULL	NULL	face/f_060.bmp	NULL	NULL	NULL	NULL	NULL	NULL	Repeat	FFSFFFSSFSSFSSSFSFFS	NULL	NULL	NULL	TrialProc	Relevant	BlockList	1	2	0	514193	10	513703	2	682	514385
TRSEscan	106	2	60.001	1	-248454241	5/6/2010	18:30:09	4	BlockProc	SessionList	2	2	4	11	NULL	NULL	NULL	NULL	11	5	77	Scenes	NULL	NULL	NULL	Faces	1	4390	0	521593	10	517303	1	NULL	NULL	scene/s_206.bmp	NULL	NULL	NULL	NULL	NULL	NULL	Repeat	FFSFFFSSFSSFSSSFSFFS	NULL	NULL	NULL	TrialProc	Irrelevant	BlockList	1	1	0	517193	10	516703	1	586	517289
TRSEscan	106	2	60.001	1	-248454241	5/6/2010	18:30:09	4	BlockProc	SessionList	2	2	4	12	NULL	NULL	NULL	NULL	12	5	78	Scenes	NULL	NULL	NULL	Faces	1	6390	0	528593	10	522303	0	NULL	NULL	scene/s_097.bmp	NULL	NULL	NULL	NULL	NULL	NULL	Novel	FFSFFFSSFSSFSSSFSFFS	NULL	NULL	NULL	TrialProc	Irrelevant	BlockList	1	1	0	522193	10	521703	1	570	522273
TRSEscan	106	2	60.001	1	-248454241	5/6/2010	18:30:09	4	BlockProc	SessionList	2	2	4	13	NULL	NULL	NULL	NULL	13	5	79	Faces	NULL	NULL	NULL	Faces	1	4390	0	533593	10	529303	2	NULL	NULL	face/m_055.bmp	NULL	NULL	NULL	NULL	NULL	NULL	Novel	FFSFFFSSFSSFSSSFSFFS	NULL	NULL	NULL	TrialProc	Relevant	BlockList	1	1	0	529193	10	528703	1	530	529233
TRSEscan	106	2	60.001	1	-248454241	5/6/2010	18:30:09	4	BlockProc	SessionList	2	2	4	14	NULL	NULL	NULL	NULL	14	5	80	Scenes	NULL	NULL	NULL	Faces	1	2390	0	536593	10	534303	1	NULL	NULL	scene/s_097.bmp	NULL	NULL	NULL	NULL	NULL	NULL	Repeat	FFSFFFSSFSSFSSSFSFFS	NULL	NULL	NULL	TrialProc	Irrelevant	BlockList	1	1	0	534193	10	533703	1	530	534233
TRSEscan	106	2	60.001	1	-248454241	5/6/2010	18:30:09	4	BlockProc	SessionList	2	2	4	15	NULL	NULL	NULL	NULL	15	5	81	Scenes	NULL	NULL	NULL	Faces	1	6390	0	543593	10	537303	0	NULL	NULL	scene/s_412.bmp	NULL	NULL	NULL	NULL	NULL	NULL	Novel	FFSFFFSSFSSFSSSFSFFS	NULL	NULL	NULL	TrialProc	Irrelevant	BlockList	1	1	0	537193	10	536703	1	514	537217
TRSEscan	106	2	60.001	1	-248454241	5/6/2010	18:30:09	4	BlockProc	SessionList	2	2	4	16	NULL	NULL	NULL	NULL	16	5	82	Scenes	NULL	NULL	NULL	Faces	1	4390	0	548593	10	544303	0	NULL	NULL	scene/s_326.bmp	NULL	NULL	NULL	NULL	NULL	NULL	Novel	FFSFFFSSFSSFSSSFSFFS	NULL	NULL	NULL	TrialProc	Irrelevant	BlockList	1	1	0	544193	10	543703	1	505	544208
TRSEscan	106	2	60.001	1	-248454241	5/6/2010	18:30:09	4	BlockProc	SessionList	2	2	4	17	NULL	NULL	NULL	NULL	17	5	83	Faces	NULL	NULL	NULL	Faces	1	6390	0	555592	10	549302	3	NULL	NULL	face/m_070.bmp	NULL	NULL	NULL	NULL	NULL	NULL	Novel	FFSFFFSSFSSFSSSFSFFS	NULL	NULL	NULL	TrialProc	Relevant	BlockList	1	1	0	549192	9	548702	1	554	549256
TRSEscan	106	2	60.001	1	-248454241	5/6/2010	18:30:09	4	BlockProc	SessionList	2	2	4	18	NULL	NULL	NULL	NULL	18	5	84	Scenes	NULL	NULL	NULL	Faces	1	2390	0	558592	10	556302	1	NULL	NULL	scene/s_326.bmp	NULL	NULL	NULL	NULL	NULL	NULL	Repeat	FFSFFFSSFSSFSSSFSFFS	NULL	NULL	NULL	TrialProc	Irrelevant	BlockList	1	1	0	556192	10	555702	1	626	556328
TRSEscan	106	2	60.001	1	-248454241	5/6/2010	18:30:09	4	BlockProc	SessionList	2	2	4	19	NULL	NULL	NULL	NULL	19	5	85	Faces	NULL	NULL	NULL	Faces	2	2390	0	561592	10	559302	1	NULL	NULL	face/m_070.bmp	NULL	NULL	NULL	NULL	NULL	NULL	Repeat	FFSFFFSSFSSFSSSFSFFS	NULL	NULL	NULL	TrialProc	Relevant	BlockList	1	2	0	559192	10	558702	2	626	559328
TRSEscan	106	2	60.001	1	-248454241	5/6/2010	18:30:09	4	BlockProc	SessionList	2	2	4	20	NULL	NULL	NULL	NULL	20	5	86	Faces	NULL	NULL	NULL	Faces	1	6390	0	568592	10	562302	0	NULL	NULL	face/f_064.bmp	NULL	NULL	NULL	NULL	NULL	NULL	Novel	FFSFFFSSFSSFSSSFSFFS	NULL	NULL	NULL	TrialProc	Relevant	BlockList	1	1	0	562192	10	561702	1	522	562224
TRSEscan	106	2	60.001	1	-248454241	5/6/2010	18:30:09	4	BlockProc	SessionList	2	2	4	21	NULL	NULL	NULL	NULL	21	5	87	Scenes	NULL	NULL	NULL	Faces	1	4390	0	573592	10	569302	2	NULL	NULL	scene/s_190.bmp	NULL	NULL	NULL	NULL	NULL	NULL	Novel	FFSFFFSSFSSFSSSFSFFS	NULL	NULL	NULL	TrialProc	Irrelevant	BlockList	1	1	0	569192	10	568702	1	514	569216
TRSEscan	106	2	60.001	1	-248454241	5/6/2010	18:30:09	4	BlockProc	SessionList	2	2	4	22	NULL	NULL	NULL	NULL	22	5	88		NULL	NULL	NULL	Faces			NULL	NULL	NULL	NULL		588592	586702		NULL	NULL	NULL	NULL	NULL	NULL			NULL	NULL	NULL	FeedbackProc		BlockList	NULL	NULL	NULL	NULL	NULL	NULL	NULL	NULL	NULL
TRSEscan	106	3	60.002	1	-1372783809	5/6/2010	18:40:49	1	BlockProc	SessionList	2	2	1	1	-999999	47811	3	43056	1	2	1		1	2	812	Categorize			NULL	NULL	NULL	NULL		NULL	NULL		68154	1	49641	0	69146	68156			0	71046	69156	InstrProc		BlockList	NULL	NULL	NULL	NULL	NULL	NULL	NULL	NULL	NULL
TRSEscan	106	3	60.002	1	-1372783809	5/6/2010	18:40:49	1	BlockProc	SessionList	2	2	1	2	NULL	NULL	NULL	NULL	2	2	2	Faces	NULL	NULL	NULL	Categorize	1	4390	0	76046	10	71756	0	NULL	NULL	face/m_099.bmp	NULL	NULL	NULL	NULL	NULL	NULL	Novel	FFSFFFSFFSSFSFSSSFSS	NULL	NULL	NULL	TrialProc	Irrelevant	BlockList	1	1	0	71646	10	71156	1	486	71642
TRSEscan	106	3	60.002	1	-1372783809	5/6/2010	18:40:49	1	BlockProc	SessionList	2	2	1	3	NULL	NULL	NULL	NULL	3	2	3	Faces	NULL	NULL	NULL	Categorize	1	2390	0	79046	10	76756	0	NULL	NULL	face/m_016.bmp	NULL	NULL	NULL	NULL	NULL	NULL	Novel	FFSFFFSFFSSFSFSSSFSS	NULL	NULL	NULL	TrialProc	Irrelevant	BlockList	1	1	0	76646	10	76156	1	390	76546
TRSEscan	106	3	60.002	1	-1372783809	5/6/2010	18:40:49	1	BlockProc	SessionList	2	2	1	4	NULL	NULL	NULL	NULL	4	2	4	Scenes	NULL	NULL	NULL	Categorize	2	2390	0	82046	10	79756	2	NULL	NULL	scene/s_432.bmp	NULL	NULL	NULL	NULL	NULL	NULL	Novel	FFSFFFSFFSSFSFSSSFSS	NULL	NULL	NULL	TrialProc	Irrelevant	BlockList	1	2	0	79646	10	79156	2	478	79634
TRSEscan	106	3	60.002	1	-1372783809	5/6/2010	18:40:49	1	BlockProc	SessionList	2	2	1	5	NULL	NULL	NULL	NULL	5	2	5	Faces	NULL	NULL	NULL	Categorize	1	6390	0	89046	10	82756	1	NULL	NULL	face/m_024.bmp	NULL	NULL	NULL	NULL	NULL	NULL	Novel	FFSFFFSFFSSFSFSSSFSS	NULL	NULL	NULL	TrialProc	Irrelevant	BlockList	1	1	0	82646	10	82156	1	494	82650
TRSEscan	106	3	60.002	1	-1372783809	5/6/2010	18:40:49	1	BlockProc	SessionList	2	2	1	6	NULL	NULL	NULL	NULL	6	2	6	Faces	NULL	NULL	NULL	Categorize	1	4390	0	94045	10	89755	0	NULL	NULL	face/m_024.bmp	NULL	NULL	NULL	NULL	NULL	NULL	Repeat	FFSFFFSFFSSFSFSSSFSS	NULL	NULL	NULL	TrialProc	Irrelevant	BlockList	1	1	0	89645	9	89155	1	455	89610
TRSEscan	106	3	60.002	1	-1372783809	5/6/2010	18:40:49	1	BlockProc	SessionList	2	2	1	7	NULL	NULL	NULL	NULL	7	2	7	Faces	NULL	NULL	NULL	Categorize	1	6390	0	101045	10	94755	0	NULL	NULL	face/f_144.bmp	NULL	NULL	NULL	NULL	NULL	NULL	Novel	FFSFFFSFFSSFSFSSSFSS	NULL	NULL	NULL	TrialProc	Irrelevant	BlockList	1	1	0	94645	10	94155	1	455	94610
TRSEscan	106	3	60.002	1	-1372783809	5/6/2010	18:40:49	1	BlockProc	SessionList	2	2	1	8	NULL	NULL	NULL	NULL	8	2	8	Scenes	NULL	NULL	NULL	Categorize	2	2390	0	104045	10	101755	3	NULL	NULL	scene/s_039.bmp	NULL	NULL	NULL	NULL	NULL	NULL	Novel	FFSFFFSFFSSFSFSSSFSS	NULL	NULL	NULL	TrialProc	Irrelevant	BlockList	1	2	0	101645	10	101155	2	503	101658
TRSEscan	106	3	60.002	1	-1372783809	5/6/2010	18:40:49	1	BlockProc	SessionList	2	2	1	9	NULL	NULL	NULL	NULL	9	2	9	Faces	NULL	NULL	NULL	Categorize	1	4390	0	109045	10	104755	1	NULL	NULL	face/f_143.bmp	NULL	NULL	NULL	NULL	NULL	NULL	Novel	FFSFFFSFFSSFSFSSSFSS	NULL	NULL	NULL	TrialProc	Irrelevant	BlockList	1	1	0	104645	10	104155	1	446	104601
TRSEscan	106	3	60.002	1	-1372783809	5/6/2010	18:40:49	1	BlockProc	SessionList	2	2	1	10	NULL	NULL	NULL	NULL	10	2	10	Faces	NULL	NULL	NULL	Categorize	1	6390	0	116045	10	109755	0	NULL	NULL	face/f_143.bmp	NULL	NULL	NULL	NULL	NULL	NULL	Repeat	FFSFFFSFFSSFSFSSSFSS	NULL	NULL	NULL	TrialProc	Irrelevant	BlockList	1	1	0	109645	10	109155	1	414	109569
TRSEscan	106	3	60.002	1	-1372783809	5/6/2010	18:40:49	1	BlockProc	SessionList	2	2	1	11	NULL	NULL	NULL	NULL	11	2	11	Scenes	NULL	NULL	NULL	Categorize	2	4390	0	121045	10	116755	2	NULL	NULL	scene/s_014.bmp	NULL	NULL	NULL	NULL	NULL	NULL	Novel	FFSFFFSFFSSFSFSSSFSS	NULL	NULL	NULL	TrialProc	Irrelevant	BlockList	1	2	0	116645	10	116155	2	446	116601
TRSEscan	106	3	60.002	1	-1372783809	5/6/2010	18:40:49	1	BlockProc	SessionList	2	2	1	12	NULL	NULL	NULL	NULL	12	2	12	Scenes	NULL	NULL	NULL	Categorize	2	2390	0	124045	10	121755	0	NULL	NULL	scene/s_014.bmp	NULL	NULL	NULL	NULL	NULL	NULL	Repeat	FFSFFFSFFSSFSFSSSFSS	NULL	NULL	NULL	TrialProc	Irrelevant	BlockList	1	2	0	121645	10	121155	2	366	121521
TRSEscan	106	3	60.002	1	-1372783809	5/6/2010	18:40:49	1	BlockProc	SessionList	2	2	1	13	NULL	NULL	NULL	NULL	13	2	13	Faces	NULL	NULL	NULL	Categorize	1	4390	0	129045	10	124755	2	NULL	NULL	face/f_143.bmp	NULL	NULL	NULL	NULL	NULL	NULL	Repeat	FFSFFFSFFSSFSFSSSFSS	NULL	NULL	NULL	TrialProc	Irrelevant	BlockList	1	1	0	124645	10	124155	1	478	124633
TRSEscan	106	3	60.002	1	-1372783809	5/6/2010	18:40:49	1	BlockProc	SessionList	2	2	1	14	NULL	NULL	NULL	NULL	14	2	14	Scenes	NULL	NULL	NULL	Categorize	2	2390	0	132045	10	129755	1	NULL	NULL	scene/s_317.bmp	NULL	NULL	NULL	NULL	NULL	NULL	Novel	FFSFFFSFFSSFSFSSSFSS	NULL	NULL	NULL	TrialProc	Irrelevant	BlockList	1	2	0	129645	10	129155	2	342	129497
TRSEscan	106	3	60.002	1	-1372783809	5/6/2010	18:40:49	1	BlockProc	SessionList	2	2	1	15	NULL	NULL	NULL	NULL	15	2	15	Faces	NULL	NULL	NULL	Categorize	1	6390	0	139044	9	132754	1	NULL	NULL	face/m_117.bmp	NULL	NULL	NULL	NULL	NULL	NULL	Novel	FFSFFFSFFSSFSFSSSFSS	NULL	NULL	NULL	TrialProc	Irrelevant	BlockList	1	1	0	132645	10	132155	1	454	132609
TRSEscan	106	3	60.002	1	-1372783809	5/6/2010	18:40:49	1	BlockProc	SessionList	2	2	1	16	NULL	NULL	NULL	NULL	16	2	16	Scenes	NULL	NULL	NULL	Categorize	2	4390	0	144044	10	139754	1	NULL	NULL	scene/s_082.bmp	NULL	NULL	NULL	NULL	NULL	NULL	Novel	FFSFFFSFFSSFSFSSSFSS	NULL	NULL	NULL	TrialProc	Irrelevant	BlockList	1	2	0	139644	10	139154	2	479	139633
TRSEscan	106	3	60.002	1	-1372783809	5/6/2010	18:40:49	1	BlockProc	SessionList	2	2	1	17	NULL	NULL	NULL	NULL	17	2	17	Scenes	NULL	NULL	NULL	Categorize	2	6390	0	151044	10	144754	0	NULL	NULL	scene/s_082.bmp	NULL	NULL	NULL	NULL	NULL	NULL	Repeat	FFSFFFSFFSSFSFSSSFSS	NULL	NULL	NULL	TrialProc	Irrelevant	BlockList	1	2	0	144644	10	144154	2	583	144737
TRSEscan	106	3	60.002	1	-1372783809	5/6/2010	18:40:49	1	BlockProc	SessionList	2	2	1	18	NULL	NULL	NULL	NULL	18	2	18	Scenes	NULL	NULL	NULL	Categorize	2	2390	0	154044	10	151754	0	NULL	NULL	scene/s_082.bmp	NULL	NULL	NULL	NULL	NULL	NULL	Repeat	FFSFFFSFFSSFSFSSSFSS	NULL	NULL	NULL	TrialProc	Irrelevant	BlockList	1	2	0	151644	10	151154	2	470	151624
TRSEscan	106	3	60.002	1	-1372783809	5/6/2010	18:40:49	1	BlockProc	SessionList	2	2	1	19	NULL	NULL	NULL	NULL	19	2	19	Faces	NULL	NULL	NULL	Categorize	1	2390	0	157044	10	154754	3	NULL	NULL	face/m_117.bmp	NULL	NULL	NULL	NULL	NULL	NULL	Repeat	FFSFFFSFFSSFSFSSSFSS	NULL	NULL	NULL	TrialProc	Irrelevant	BlockList	1	1	0	154644	10	154154	1	430	154584
TRSEscan	106	3	60.002	1	-1372783809	5/6/2010	18:40:49	1	BlockProc	SessionList	2	2	1	20	NULL	NULL	NULL	NULL	20	2	20	Scenes	NULL	NULL	NULL	Categorize	2	4390	0	162044	10	157754	1	NULL	NULL	scene/s_010.bmp	NULL	NULL	NULL	NULL	NULL	NULL	Novel	FFSFFFSFFSSFSFSSSFSS	NULL	NULL	NULL	TrialProc	Irrelevant	BlockList	1	2	0	157644	10	157154	2	342	157496
TRSEscan	106	3	60.002	1	-1372783809	5/6/2010	18:40:49	1	BlockProc	SessionList	2	2	1	21	NULL	NULL	NULL	NULL	21	2	21	Scenes	NULL	NULL	NULL	Categorize	2	6390	0	169044	10	162754	0	NULL	NULL	scene/s_010.bmp	NULL	NULL	NULL	NULL	NULL	NULL	Repeat	FFSFFFSFFSSFSFSSSFSS	NULL	NULL	NULL	TrialProc	Irrelevant	BlockList	1	2	0	162644	10	162154	2	470	162624
TRSEscan	106	3	60.002	1	-1372783809	5/6/2010	18:40:49	1	BlockProc	SessionList	2	2	1	22	NULL	NULL	NULL	NULL	22	2	22		NULL	NULL	NULL	Categorize			NULL	NULL	NULL	NULL		184043	182153		NULL	NULL	NULL	NULL	NULL	NULL			NULL	NULL	NULL	FeedbackProc		BlockList	NULL	NULL	NULL	NULL	NULL	NULL	NULL	NULL	NULL
TRSEscan	106	3	60.002	1	-1372783809	5/6/2010	18:40:49	2	BlockProc	SessionList	2	2	2	1	-999999	192640	10	184153	1	3	23		1	2	1011	Both			NULL	NULL	NULL	NULL		NULL	NULL		203351	1	194671	0	204343	203353			0	206243	204353	InstrProc		BlockList	NULL	NULL	NULL	NULL	NULL	NULL	NULL	NULL	NULL
TRSEscan	106	3	60.002	1	-1372783809	5/6/2010	18:40:49	2	BlockProc	SessionList	2	2	2	2	NULL	NULL	NULL	NULL	2	3	24	Faces	NULL	NULL	NULL	Both	1	4390	0	211243	10	206953	0	NULL	NULL	face/m_045.bmp	NULL	NULL	NULL	NULL	NULL	NULL	Novel	FFSFFFSFFSSFSFSSSFSS	NULL	NULL	NULL	TrialProc	Relevant	BlockList	1	1	0	206843	10	206353	1	438	206791
TRSEscan	106	3	60.002	1	-1372783809	5/6/2010	18:40:49	2	BlockProc	SessionList	2	2	2	3	NULL	NULL	NULL	NULL	3	3	25	Faces	NULL	NULL	NULL	Both	1	2390	0	214243	10	211953	0	NULL	NULL	face/f_131.bmp	NULL	NULL	NULL	NULL	NULL	NULL	Novel	FFSFFFSFFSSFSFSSSFSS	NULL	NULL	NULL	TrialProc	Relevant	BlockList	1	1	0	211843	10	211353	1	574	211927
TRSEscan	106	3	60.002	1	-1372783809	5/6/2010	18:40:49	2	BlockProc	SessionList	2	2	2	4	NULL	NULL	NULL	NULL	4	3	26	Scenes	NULL	NULL	NULL	Both	1	2390	0	217243	10	214953	2	NULL	NULL	scene/s_023.bmp	NULL	NULL	NULL	NULL	NULL	NULL	Novel	FFSFFFSFFSSFSFSSSFSS	NULL	NULL	NULL	TrialProc	Relevant	BlockList	0	1	0	214843	10	214353	2	614	214967
TRSEscan	106	3	60.002	1	-1372783809	5/6/2010	18:40:49	2	BlockProc	SessionList	2	2	2	5	NULL	NULL	NULL	NULL	5	3	27	Faces	NULL	NULL	NULL	Both	1	6390	0	224243	10	217953	1	NULL	NULL	face/f_053.bmp	NULL	NULL	NULL	NULL	NULL	NULL	Novel	FFSFFFSFFSSFSFSSSFSS	NULL	NULL	NULL	TrialProc	Relevant	BlockList	1	1	0	217843	10	217353	1	630	217983
TRSEscan	106	3	60.002	1	-1372783809	5/6/2010	18:40:49	2	BlockProc	SessionList	2	2	2	6	NULL	NULL	NULL	NULL	6	3	28	Faces	NULL	NULL	NULL	Both	2	4390	0	229243	10	224953	0	NULL	NULL	face/f_053.bmp	NULL	NULL	NULL	NULL	NULL	NULL	Repeat	FFSFFFSFFSSFSFSSSFSS	NULL	NULL	NULL	TrialProc	Relevant	BlockList	1	2	0	224843	10	224353	2	582	224935
TRSEscan	106	3	60.002	1	-1372783809	5/6/2010	18:40:49	2	BlockProc	SessionList	2	2	2	7	NULL	NULL	NULL	NULL	7	3	29	Faces	NULL	NULL	NULL	Both	1	6390	0	236242	10	229952	0	NULL	NULL	face/m_067.bmp	NULL	NULL	NULL	NULL	NULL	NULL	Novel	FFSFFFSFFSSFSFSSSFSS	NULL	NULL	NULL	TrialProc	Relevant	BlockList	1	1	0	229842	9	229352	1	487	229839
TRSEscan	106	3	60.002	1	-1372783809	5/6/2010	18:40:49	2	BlockProc	SessionList	2	2	2	8	NULL	NULL	NULL	NULL	8	3	30	Scenes	NULL	NULL	NULL	Both	1	2390	0	239242	10	236952	3	NULL	NULL	scene/s_251.bmp	NULL	NULL	NULL	NULL	NULL	NULL	Novel	FFSFFFSFFSSFSFSSSFSS	NULL	NULL	NULL	TrialProc	Relevant	BlockList	1	1	0	236842	10	236352	1	775	237127
TRSEscan	106	3	60.002	1	-1372783809	5/6/2010	18:40:49	2	BlockProc	SessionList	2	2	2	9	NULL	NULL	NULL	NULL	9	3	31	Faces	NULL	NULL	NULL	Both	1	4390	0	244242	10	239952	1	NULL	NULL	face/f_091.bmp	NULL	NULL	NULL	NULL	NULL	NULL	Novel	FFSFFFSFFSSFSFSSSFSS	NULL	NULL	NULL	TrialProc	Relevant	BlockList	1	1	0	239842	10	239352	1	607	239959
TRSEscan	106	3	60.002	1	-1372783809	5/6/2010	18:40:49	2	BlockProc	SessionList	2	2	2	10	NULL	NULL	NULL	NULL	10	3	32	Faces	NULL	NULL	NULL	Both	2	6390	0	251242	10	244952	0	NULL	NULL	face/f_091.bmp	NULL	NULL	NULL	NULL	NULL	NULL	Repeat	FFSFFFSFFSSFSFSSSFSS	NULL	NULL	NULL	TrialProc	Relevant	BlockList	1	2	0	244842	10	244352	2	631	244983
TRSEscan	106	3	60.002	1	-1372783809	5/6/2010	18:40:49	2	BlockProc	SessionList	2	2	2	11	NULL	NULL	NULL	NULL	11	3	33	Scenes	NULL	NULL	NULL	Both	1	4390	0	256242	10	251952	2	NULL	NULL	scene/s_284.bmp	NULL	NULL	NULL	NULL	NULL	NULL	Novel	FFSFFFSFFSSFSFSSSFSS	NULL	NULL	NULL	TrialProc	Relevant	BlockList	1	1	0	251842	10	251352	1	702	252054
TRSEscan	106	3	60.002	1	-1372783809	5/6/2010	18:40:49	2	BlockProc	SessionList	2	2	2	12	NULL	NULL	NULL	NULL	12	3	34	Scenes	NULL	NULL	NULL	Both	2	2390	0	259242	10	256952	0	NULL	NULL	scene/s_284.bmp	NULL	NULL	NULL	NULL	NULL	NULL	Repeat	FFSFFFSFFSSFSFSSSFSS	NULL	NULL	NULL	TrialProc	Relevant	BlockList	1	2	0	256842	10	256352	2	638	256990
TRSEscan	106	3	60.002	1	-1372783809	5/6/2010	18:40:49	2	BlockProc	SessionList	2	2	2	13	NULL	NULL	NULL	NULL	13	3	35	Faces	NULL	NULL	NULL	Both	2	4390	0	264242	10	259952	2	NULL	NULL	face/f_091.bmp	NULL	NULL	NULL	NULL	NULL	NULL	Repeat	FFSFFFSFFSSFSFSSSFSS	NULL	NULL	NULL	TrialProc	Relevant	BlockList	1	2	0	259842	10	259352	2	686	260038
TRSEscan	106	3	60.002	1	-1372783809	5/6/2010	18:40:49	2	BlockProc	SessionList	2	2	2	14	NULL	NULL	NULL	NULL	14	3	36	Scenes	NULL	NULL	NULL	Both	1	2390	0	267242	10	264952	1	NULL	NULL	scene/s_292.bmp	NULL	NULL	NULL	NULL	NULL	NULL	Novel	FFSFFFSFFSSFSFSSSFSS	NULL	NULL	NULL	TrialProc	Relevant	BlockList	1	1	0	264842	10	264352	1	582	264934
TRSEscan	106	3	60.002	1	-1372783809	5/6/2010	18:40:49	2	BlockProc	SessionList	2	2	2	15	NULL	NULL	NULL	NULL	15	3	37	Faces	NULL	NULL	NULL	Both	1	6390	0	274242	10	267952	1	NULL	NULL	face/m_033.bmp	NULL	NULL	NULL	NULL	NULL	NULL	Novel	FFSFFFSFFSSFSFSSSFSS	NULL	NULL	NULL	TrialProc	Relevant	BlockList	1	1	0	267842	10	267352	1	590	267942
TRSEscan	106	3	60.002	1	-1372783809	5/6/2010	18:40:49	2	BlockProc	SessionList	2	2	2	16	NULL	NULL	NULL	NULL	16	3	38	Scenes	NULL	NULL	NULL	Both	1	4390	0	279241	10	274951	1	NULL	NULL	scene/s_056.bmp	NULL	NULL	NULL	NULL	NULL	NULL	Novel	FFSFFFSFFSSFSFSSSFSS	NULL	NULL	NULL	TrialProc	Relevant	BlockList	1	1	0	274841	9	274351	1	599	274950
TRSEscan	106	3	60.002	1	-1372783809	5/6/2010	18:40:49	2	BlockProc	SessionList	2	2	2	17	NULL	NULL	NULL	NULL	17	3	39	Scenes	NULL	NULL	NULL	Both	2	6390	0	286241	10	279951	0	NULL	NULL	scene/s_056.bmp	NULL	NULL	NULL	NULL	NULL	NULL	Repeat	FFSFFFSFFSSFSFSSSFSS	NULL	NULL	NULL	TrialProc	Relevant	BlockList	1	2	0	279841	10	279351	2	503	279854
TRSEscan	106	3	60.002	1	-1372783809	5/6/2010	18:40:49	2	BlockProc	SessionList	2	2	2	18	NULL	NULL	NULL	NULL	18	3	40	Scenes	NULL	NULL	NULL	Both	2	2390	0	289241	10	286951	0	NULL	NULL	scene/s_056.bmp	NULL	NULL	NULL	NULL	NULL	NULL	Repeat	FFSFFFSFFSSFSFSSSFSS	NULL	NULL	NULL	TrialProc	Relevant	BlockList	1	2	0	286841	10	286351	2	519	286870
TRSEscan	106	3	60.002	1	-1372783809	5/6/2010	18:40:49	2	BlockProc	SessionList	2	2	2	19	NULL	NULL	NULL	NULL	19	3	41	Faces	NULL	NULL	NULL	Both	2	2390	0	292241	10	289951	3	NULL	NULL	face/m_033.bmp	NULL	NULL	NULL	NULL	NULL	NULL	Repeat	FFSFFFSFFSSFSFSSSFSS	NULL	NULL	NULL	TrialProc	Relevant	BlockList	1	2	0	289841	10	289351	2	607	289958
TRSEscan	106	3	60.002	1	-1372783809	5/6/2010	18:40:49	2	BlockProc	SessionList	2	2	2	20	NULL	NULL	NULL	NULL	20	3	42	Scenes	NULL	NULL	NULL	Both	1	4390	0	297241	10	292951	1	NULL	NULL	scene/s_310.bmp	NULL	NULL	NULL	NULL	NULL	NULL	Novel	FFSFFFSFFSSFSFSSSFSS	NULL	NULL	NULL	TrialProc	Relevant	BlockList	1	1	0	292841	10	292351	1	638	292989
TRSEscan	106	3	60.002	1	-1372783809	5/6/2010	18:40:49	2	BlockProc	SessionList	2	2	2	21	NULL	NULL	NULL	NULL	21	3	43	Scenes	NULL	NULL	NULL	Both	2	6390	0	304241	10	297951	0	NULL	NULL	scene/s_310.bmp	NULL	NULL	NULL	NULL	NULL	NULL	Repeat	FFSFFFSFFSSFSFSSSFSS	NULL	NULL	NULL	TrialProc	Relevant	BlockList	1	2	0	297841	10	297351	2	550	297901
TRSEscan	106	3	60.002	1	-1372783809	5/6/2010	18:40:49	2	BlockProc	SessionList	2	2	2	22	NULL	NULL	NULL	NULL	22	3	44		NULL	NULL	NULL	Both			NULL	NULL	NULL	NULL		319241	317351		NULL	NULL	NULL	NULL	NULL	NULL			NULL	NULL	NULL	FeedbackProc		BlockList	NULL	NULL	NULL	NULL	NULL	NULL	NULL	NULL	NULL
TRSEscan	106	3	60.002	1	-1372783809	5/6/2010	18:40:49	3	BlockProc	SessionList	2	2	3	1	-999999	324205	10	319351	1	4	45		1	2	764	Faces			NULL	NULL	NULL	NULL		NULL	NULL		337645	1	325985	0	338640	337650			0	340540	338650	InstrProc		BlockList	NULL	NULL	NULL	NULL	NULL	NULL	NULL	NULL	NULL
TRSEscan	106	3	60.002	1	-1372783809	5/6/2010	18:40:49	3	BlockProc	SessionList	2	2	3	2	NULL	NULL	NULL	NULL	2	4	46	Faces	NULL	NULL	NULL	Faces	1	4390	0	345540	10	341250	0	NULL	NULL	face/f_124.bmp	NULL	NULL	NULL	NULL	NULL	NULL	Novel	FFSFFFSFFSSFSFSSSFSS	NULL	NULL	NULL	TrialProc	Relevant	BlockList	1	1	0	341140	10	340650	1	578	341228
TRSEscan	106	3	60.002	1	-1372783809	5/6/2010	18:40:49	3	BlockProc	SessionList	2	2	3	3	NULL	NULL	NULL	NULL	3	4	47	Faces	NULL	NULL	NULL	Faces	1	2390	0	348540	10	346250	0	NULL	NULL	face/f_117.bmp	NULL	NULL	NULL	NULL	NULL	NULL	Novel	FFSFFFSFFSSFSFSSSFSS	NULL	NULL	NULL	TrialProc	Relevant	BlockList	1	1	0	346140	10	345650	1	730	346380
TRSEscan	106	3	60.002	1	-1372783809	5/6/2010	18:40:49	3	BlockProc	SessionList	2	2	3	4	NULL	NULL	NULL	NULL	4	4	48	Scenes	NULL	NULL	NULL	Faces	1	2390	0	351540	10	349250	2	NULL	NULL	scene/s_016.bmp	NULL	NULL	NULL	NULL	NULL	NULL	Novel	FFSFFFSFFSSFSFSSSFSS	NULL	NULL	NULL	TrialProc	Irrelevant	BlockList	1	1	0	349140	10	348650	1	498	349148
TRSEscan	106	3	60.002	1	-1372783809	5/6/2010	18:40:49	3	BlockProc	SessionList	2	2	3	5	NULL	NULL	NULL	NULL	5	4	49	Faces	NULL	NULL	NULL	Faces	1	6390	0	358540	10	352250	1	NULL	NULL	face/f_006.bmp	NULL	NULL	NULL	NULL	NULL	NULL	Novel	FFSFFFSFFSSFSFSSSFSS	NULL	NULL	NULL	TrialProc	Relevant	BlockList	1	1	0	352140	10	351650	1	546	352196
TRSEscan	106	3	60.002	1	-1372783809	5/6/2010	18:40:49	3	BlockProc	SessionList	2	2	3	6	NULL	NULL	NULL	NULL	6	4	50	Faces	NULL	NULL	NULL	Faces	2	4390	0	363540	10	359250	0	NULL	NULL	face/f_006.bmp	NULL	NULL	NULL	NULL	NULL	NULL	Repeat	FFSFFFSFFSSFSFSSSFSS	NULL	NULL	NULL	TrialProc	Relevant	BlockList	1	2	0	359140	10	358650	2	498	359148
TRSEscan	106	3	60.002	1	-1372783809	5/6/2010	18:40:49	3	BlockProc	SessionList	2	2	3	7	NULL	NULL	NULL	NULL	7	4	51	Faces	NULL	NULL	NULL	Faces	1	6390	0	370540	10	364250	0	NULL	NULL	face/m_115.bmp	NULL	NULL	NULL	NULL	NULL	NULL	Novel	FFSFFFSFFSSFSFSSSFSS	NULL	NULL	NULL	TrialProc	Relevant	BlockList	1	1	0	364140	10	363650	1	498	364148
TRSEscan	106	3	60.002	1	-1372783809	5/6/2010	18:40:49	3	BlockProc	SessionList	2	2	3	8	NULL	NULL	NULL	NULL	8	4	52	Scenes	NULL	NULL	NULL	Faces	1	2390	0	373539	10	371249	3	NULL	NULL	scene/s_140.bmp	NULL	NULL	NULL	NULL	NULL	NULL	Novel	FFSFFFSFFSSFSFSSSFSS	NULL	NULL	NULL	TrialProc	Irrelevant	BlockList	1	1	0	371139	9	370649	1	587	371236
TRSEscan	106	3	60.002	1	-1372783809	5/6/2010	18:40:49	3	BlockProc	SessionList	2	2	3	9	NULL	NULL	NULL	NULL	9	4	53	Faces	NULL	NULL	NULL	Faces	1	4390	0	378539	10	374249	1	NULL	NULL	face/f_065.bmp	NULL	NULL	NULL	NULL	NULL	NULL	Novel	FFSFFFSFFSSFSFSSSFSS	NULL	NULL	NULL	TrialProc	Relevant	BlockList	1	1	0	374139	10	373649	1	763	374412
TRSEscan	106	3	60.002	1	-1372783809	5/6/2010	18:40:49	3	BlockProc	SessionList	2	2	3	10	NULL	NULL	NULL	NULL	10	4	54	Faces	NULL	NULL	NULL	Faces	2	6390	0	385539	10	379249	0	NULL	NULL	face/f_065.bmp	NULL	NULL	NULL	NULL	NULL	NULL	Repeat	FFSFFFSFFSSFSFSSSFSS	NULL	NULL	NULL	TrialProc	Relevant	BlockList	1	2	0	379139	10	378649	2	475	379124
TRSEscan	106	3	60.002	1	-1372783809	5/6/2010	18:40:49	3	BlockProc	SessionList	2	2	3	11	NULL	NULL	NULL	NULL	11	4	55	Scenes	NULL	NULL	NULL	Faces	1	4390	0	390539	10	386249	2	NULL	NULL	scene/s_398.bmp	NULL	NULL	NULL	NULL	NULL	NULL	Novel	FFSFFFSFFSSFSFSSSFSS	NULL	NULL	NULL	TrialProc	Irrelevant	BlockList	1	1	0	386139	10	385649	1	466	386115
TRSEscan	106	3	60.002	1	-1372783809	5/6/2010	18:40:49	3	BlockProc	SessionList	2	2	3	12	NULL	NULL	NULL	NULL	12	4	56	Scenes	NULL	NULL	NULL	Faces	1	2390	0	393539	10	391249	0	NULL	NULL	scene/s_398.bmp	NULL	NULL	NULL	NULL	NULL	NULL	Repeat	FFSFFFSFFSSFSFSSSFSS	NULL	NULL	NULL	TrialProc	Irrelevant	BlockList	1	1	0	391139	10	390649	1	522	391171
TRSEscan	106	3	60.002	1	-1372783809	5/6/2010	18:40:49	3	BlockProc	SessionList	2	2	3	13	NULL	NULL	NULL	NULL	13	4	57	Faces	NULL	NULL	NULL	Faces	2	4390	0	398539	10	394249	2	NULL	NULL	face/f_065.bmp	NULL	NULL	NULL	NULL	NULL	NULL	Repeat	FFSFFFSFFSSFSFSSSFSS	NULL	NULL	NULL	TrialProc	Relevant	BlockList	1	2	0	394139	10	393649	2	570	394219
TRSEscan	106	3	60.002	1	-1372783809	5/6/2010	18:40:49	3	BlockProc	SessionList	2	2	3	14	NULL	NULL	NULL	NULL	14	4	58	Scenes	NULL	NULL	NULL	Faces	1	2390	0	401539	10	399249	1	NULL	NULL	scene/s_048.bmp	NULL	NULL	NULL	NULL	NULL	NULL	Novel	FFSFFFSFFSSFSFSSSFSS	NULL	NULL	NULL	TrialProc	Irrelevant	BlockList	1	1	0	399139	10	398649	1	450	399099
TRSEscan	106	3	60.002	1	-1372783809	5/6/2010	18:40:49	3	BlockProc	SessionList	2	2	3	15	NULL	NULL	NULL	NULL	15	4	59	Faces	NULL	NULL	NULL	Faces	1	6390	0	408539	10	402249	1	NULL	NULL	face/m_043.bmp	NULL	NULL	NULL	NULL	NULL	NULL	Novel	FFSFFFSFFSSFSFSSSFSS	NULL	NULL	NULL	TrialProc	Relevant	BlockList	1	1	0	402139	10	401649	1	498	402147
TRSEscan	106	3	60.002	1	-1372783809	5/6/2010	18:40:49	3	BlockProc	SessionList	2	2	3	16	NULL	NULL	NULL	NULL	16	4	60	Scenes	NULL	NULL	NULL	Faces	1	4390	0	413539	10	409249	1	NULL	NULL	scene/s_383.bmp	NULL	NULL	NULL	NULL	NULL	NULL	Novel	FFSFFFSFFSSFSFSSSFSS	NULL	NULL	NULL	TrialProc	Irrelevant	BlockList	1	1	0	409139	10	408649	1	450	409099
TRSEscan	106	3	60.002	1	-1372783809	5/6/2010	18:40:49	3	BlockProc	SessionList	2	2	3	17	NULL	NULL	NULL	NULL	17	4	61	Scenes	NULL	NULL	NULL	Faces	1	6390	0	420539	10	414249	0	NULL	NULL	scene/s_383.bmp	NULL	NULL	NULL	NULL	NULL	NULL	Repeat	FFSFFFSFFSSFSFSSSFSS	NULL	NULL	NULL	TrialProc	Irrelevant	BlockList	1	1	0	414139	10	413649	1	666	414315
TRSEscan	106	3	60.002	1	-1372783809	5/6/2010	18:40:49	3	BlockProc	SessionList	2	2	3	18	NULL	NULL	NULL	NULL	18	4	62	Scenes	NULL	NULL	NULL	Faces	1	2390	0	423538	10	421248	0	NULL	NULL	scene/s_383.bmp	NULL	NULL	NULL	NULL	NULL	NULL	Repeat	FFSFFFSFFSSFSFSSSFSS	NULL	NULL	NULL	TrialProc	Irrelevant	BlockList	1	1	0	421138	9	420648	1	395	421043
TRSEscan	106	3	60.002	1	-1372783809	5/6/2010	18:40:49	3	BlockProc	SessionList	2	2	3	19	NULL	NULL	NULL	NULL	19	4	63	Faces	NULL	NULL	NULL	Faces	2	2390	0	426538	10	424248	3	NULL	NULL	face/m_043.bmp	NULL	NULL	NULL	NULL	NULL	NULL	Repeat	FFSFFFSFFSSFSFSSSFSS	NULL	NULL	NULL	TrialProc	Relevant	BlockList	1	2	0	424138	10	423648	2	483	424131
TRSEscan	106	3	60.002	1	-1372783809	5/6/2010	18:40:49	3	BlockProc	SessionList	2	2	3	20	NULL	NULL	NULL	NULL	20	4	64	Scenes	NULL	NULL	NULL	Faces	1	4390	0	431538	10	427248	1	NULL	NULL	scene/s_279.bmp	NULL	NULL	NULL	NULL	NULL	NULL	Novel	FFSFFFSFFSSFSFSSSFSS	NULL	NULL	NULL	TrialProc	Irrelevant	BlockList	1	1	0	427138	10	426648	1	491	427139
TRSEscan	106	3	60.002	1	-1372783809	5/6/2010	18:40:49	3	BlockProc	SessionList	2	2	3	21	NULL	NULL	NULL	NULL	21	4	65	Scenes	NULL	NULL	NULL	Faces	1	6390	0	438538	10	432248	0	NULL	NULL	scene/s_279.bmp	NULL	NULL	NULL	NULL	NULL	NULL	Repeat	FFSFFFSFFSSFSFSSSFSS	NULL	NULL	NULL	TrialProc	Irrelevant	BlockList	1	1	0	432138	10	431648	1	491	432139
TRSEscan	106	3	60.002	1	-1372783809	5/6/2010	18:40:49	3	BlockProc	SessionList	2	2	3	22	NULL	NULL	NULL	NULL	22	4	66		NULL	NULL	NULL	Faces			NULL	NULL	NULL	NULL		453538	451648		NULL	NULL	NULL	NULL	NULL	NULL			NULL	NULL	NULL	FeedbackProc		BlockList	NULL	NULL	NULL	NULL	NULL	NULL	NULL	NULL	NULL
TRSEscan	106	3	60.002	1	-1372783809	5/6/2010	18:40:49	4	BlockProc	SessionList	2	2	4	1	-999999	458682	10	453648	1	5	67		1	2	656	Scenes			NULL	NULL	NULL	NULL		NULL	NULL		472210	1	460365	0	473204	472214			0	475104	473214	InstrProc		BlockList	NULL	NULL	NULL	NULL	NULL	NULL	NULL	NULL	NULL
TRSEscan	106	3	60.002	1	-1372783809	5/6/2010	18:40:49	4	BlockProc	SessionList	2	2	4	2	NULL	NULL	NULL	NULL	2	5	68	Faces	NULL	NULL	NULL	Scenes	1	4390	0	480104	10	475814	0	NULL	NULL	face/f_017.bmp	NULL	NULL	NULL	NULL	NULL	NULL	Novel	FFSFFFSFFSSFSFSSSFSS	NULL	NULL	NULL	TrialProc	Irrelevant	BlockList	1	1	0	475704	10	475214	1	460	475674
TRSEscan	106	3	60.002	1	-1372783809	5/6/2010	18:40:49	4	BlockProc	SessionList	2	2	4	3	NULL	NULL	NULL	NULL	3	5	69	Faces	NULL	NULL	NULL	Scenes	1	2390	0	483104	10	480814	0	NULL	NULL	face/f_078.bmp	NULL	NULL	NULL	NULL	NULL	NULL	Novel	FFSFFFSFFSSFSFSSSFSS	NULL	NULL	NULL	TrialProc	Irrelevant	BlockList	1	1	0	480704	10	480214	1	412	480626
TRSEscan	106	3	60.002	1	-1372783809	5/6/2010	18:40:49	4	BlockProc	SessionList	2	2	4	4	NULL	NULL	NULL	NULL	4	5	70	Scenes	NULL	NULL	NULL	Scenes	1	2390	0	486104	10	483814	2	NULL	NULL	scene/s_407.bmp	NULL	NULL	NULL	NULL	NULL	NULL	Novel	FFSFFFSFFSSFSFSSSFSS	NULL	NULL	NULL	TrialProc	Relevant	BlockList	1	1	0	483704	10	483214	1	443	483657
TRSEscan	106	3	60.002	1	-1372783809	5/6/2010	18:40:49	4	BlockProc	SessionList	2	2	4	5	NULL	NULL	NULL	NULL	5	5	71	Faces	NULL	NULL	NULL	Scenes	1	6390	0	493104	10	486814	1	NULL	NULL	face/f_049.bmp	NULL	NULL	NULL	NULL	NULL	NULL	Novel	FFSFFFSFFSSFSFSSSFSS	NULL	NULL	NULL	TrialProc	Irrelevant	BlockList	1	1	0	486704	10	486214	1	451	486665
TRSEscan	106	3	60.002	1	-1372783809	5/6/2010	18:40:49	4	BlockProc	SessionList	2	2	4	6	NULL	NULL	NULL	NULL	6	5	72	Faces	NULL	NULL	NULL	Scenes	1	4390	0	498104	10	493814	0	NULL	NULL	face/f_049.bmp	NULL	NULL	NULL	NULL	NULL	NULL	Repeat	FFSFFFSFFSSFSFSSSFSS	NULL	NULL	NULL	TrialProc	Irrelevant	BlockList	1	1	0	493704	10	493214	1	419	493633
TRSEscan	106	3	60.002	1	-1372783809	5/6/2010	18:40:49	4	BlockProc	SessionList	2	2	4	7	NULL	NULL	NULL	NULL	7	5	73	Faces	NULL	NULL	NULL	Scenes	1	6390	0	505103	10	498813	0	NULL	NULL	face/f_044.bmp	NULL	NULL	NULL	NULL	NULL	NULL	Novel	FFSFFFSFFSSFSFSSSFSS	NULL	NULL	NULL	TrialProc	Irrelevant	BlockList	1	1	0	498703	9	498213	1	476	498689
TRSEscan	106	3	60.002	1	-1372783809	5/6/2010	18:40:49	4	BlockProc	SessionList	2	2	4	8	NULL	NULL	NULL	NULL	8	5	74	Scenes	NULL	NULL	NULL	Scenes	1	2390	0	508103	10	505813	3	NULL	NULL	scene/s_066.bmp	NULL	NULL	NULL	NULL	NULL	NULL	Novel	FFSFFFSFFSSFSFSSSFSS	NULL	NULL	NULL	TrialProc	Relevant	BlockList	1	1	0	505703	10	505213	1	524	505737
TRSEscan	106	3	60.002	1	-1372783809	5/6/2010	18:40:49	4	BlockProc	SessionList	2	2	4	9	NULL	NULL	NULL	NULL	9	5	75	Faces	NULL	NULL	NULL	Scenes	1	4390	0	513103	10	508813	1	NULL	NULL	face/m_019.bmp	NULL	NULL	NULL	NULL	NULL	NULL	Novel	FFSFFFSFFSSFSFSSSFSS	NULL	NULL	NULL	TrialProc	Irrelevant	BlockList	1	1	0	508703	10	508213	1	620	508833
TRSEscan	106	3	60.002	1	-1372783809	5/6/2010	18:40:49	4	BlockProc	SessionList	2	2	4	10	NULL	NULL	NULL	NULL	10	5	76	Faces	NULL	NULL	NULL	Scenes	1	6390	0	520103	10	513813	0	NULL	NULL	face/m_019.bmp	NULL	NULL	NULL	NULL	NULL	NULL	Repeat	FFSFFFSFFSSFSFSSSFSS	NULL	NULL	NULL	TrialProc	Irrelevant	BlockList	1	1	0	513703	10	513213	1	388	513601
TRSEscan	106	3	60.002	1	-1372783809	5/6/2010	18:40:49	4	BlockProc	SessionList	2	2	4	11	NULL	NULL	NULL	NULL	11	5	77	Scenes	NULL	NULL	NULL	Scenes	1	4390	0	525103	10	520813	2	NULL	NULL	scene/s_043.bmp	NULL	NULL	NULL	NULL	NULL	NULL	Novel	FFSFFFSFFSSFSFSSSFSS	NULL	NULL	NULL	TrialProc	Relevant	BlockList	1	1	0	520703	10	520213	1	636	520849
TRSEscan	106	3	60.002	1	-1372783809	5/6/2010	18:40:49	4	BlockProc	SessionList	2	2	4	12	NULL	NULL	NULL	NULL	12	5	78	Scenes	NULL	NULL	NULL	Scenes	2	2390	0	528103	10	525813	0	NULL	NULL	scene/s_043.bmp	NULL	NULL	NULL	NULL	NULL	NULL	Repeat	FFSFFFSFFSSFSFSSSFSS	NULL	NULL	NULL	TrialProc	Relevant	BlockList	1	2	0	525703	10	525213	2	516	525729
TRSEscan	106	3	60.002	1	-1372783809	5/6/2010	18:40:49	4	BlockProc	SessionList	2	2	4	13	NULL	NULL	NULL	NULL	13	5	79	Faces	NULL	NULL	NULL	Scenes	1	4390	0	533103	10	528813	2	NULL	NULL	face/m_019.bmp	NULL	NULL	NULL	NULL	NULL	NULL	Repeat	FFSFFFSFFSSFSFSSSFSS	NULL	NULL	NULL	TrialProc	Irrelevant	BlockList	1	1	0	528703	10	528213	1	476	528689
TRSEscan	106	3	60.002	1	-1372783809	5/6/2010	18:40:49	4	BlockProc	SessionList	2	2	4	14	NULL	NULL	NULL	NULL	14	5	80	Scenes	NULL	NULL	NULL	Scenes	1	2390	0	536103	10	533813	1	NULL	NULL	scene/s_435.bmp	NULL	NULL	NULL	NULL	NULL	NULL	Novel	FFSFFFSFFSSFSFSSSFSS	NULL	NULL	NULL	TrialProc	Relevant	BlockList	1	1	0	533703	10	533213	1	483	533696
TRSEscan	106	3	60.002	1	-1372783809	5/6/2010	18:40:49	4	BlockProc	SessionList	2	2	4	15	NULL	NULL	NULL	NULL	15	5	81	Faces	NULL	NULL	NULL	Scenes	1	6390	0	543103	10	536813	1	NULL	NULL	face/f_077.bmp	NULL	NULL	NULL	NULL	NULL	NULL	Novel	FFSFFFSFFSSFSFSSSFSS	NULL	NULL	NULL	TrialProc	Irrelevant	BlockList	1	1	0	536703	10	536213	1	483	536696
TRSEscan	106	3	60.002	1	-1372783809	5/6/2010	18:40:49	4	BlockProc	SessionList	2	2	4	16	NULL	NULL	NULL	NULL	16	5	82	Scenes	NULL	NULL	NULL	Scenes	1	4390	0	548102	10	543812	1	NULL	NULL	scene/s_105.bmp	NULL	NULL	NULL	NULL	NULL	NULL	Novel	FFSFFFSFFSSFSFSSSFSS	NULL	NULL	NULL	TrialProc	Relevant	BlockList	1	1	0	543702	9	543212	1	500	543712
TRSEscan	106	3	60.002	1	-1372783809	5/6/2010	18:40:49	4	BlockProc	SessionList	2	2	4	17	NULL	NULL	NULL	NULL	17	5	83	Scenes	NULL	NULL	NULL	Scenes	2	6390	0	555102	10	548812	0	NULL	NULL	scene/s_105.bmp	NULL	NULL	NULL	NULL	NULL	NULL	Repeat	FFSFFFSFFSSFSFSSSFSS	NULL	NULL	NULL	TrialProc	Relevant	BlockList	1	2	0	548702	10	548212	2	660	548872
TRSEscan	106	3	60.002	1	-1372783809	5/6/2010	18:40:49	4	BlockProc	SessionList	2	2	4	18	NULL	NULL	NULL	NULL	18	5	84	Scenes	NULL	NULL	NULL	Scenes	2	2390	0	558102	10	555812	0	NULL	NULL	scene/s_105.bmp	NULL	NULL	NULL	NULL	NULL	NULL	Repeat	FFSFFFSFFSSFSFSSSFSS	NULL	NULL	NULL	TrialProc	Relevant	BlockList	1	2	0	555702	10	555212	2	516	555728
TRSEscan	106	3	60.002	1	-1372783809	5/6/2010	18:40:49	4	BlockProc	SessionList	2	2	4	19	NULL	NULL	NULL	NULL	19	5	85	Faces	NULL	NULL	NULL	Scenes	1	2390	0	561102	10	558812	3	NULL	NULL	face/f_077.bmp	NULL	NULL	NULL	NULL	NULL	NULL	Repeat	FFSFFFSFFSSFSFSSSFSS	NULL	NULL	NULL	TrialProc	Irrelevant	BlockList	1	1	0	558702	10	558212	1	428	558640
TRSEscan	106	3	60.002	1	-1372783809	5/6/2010	18:40:49	4	BlockProc	SessionList	2	2	4	20	NULL	NULL	NULL	NULL	20	5	86	Scenes	NULL	NULL	NULL	Scenes	1	4390	0	566102	10	561812	1	NULL	NULL	scene/s_348.bmp	NULL	NULL	NULL	NULL	NULL	NULL	Novel	FFSFFFSFFSSFSFSSSFSS	NULL	NULL	NULL	TrialProc	Relevant	BlockList	1	1	0	561702	10	561212	1	604	561816
TRSEscan	106	3	60.002	1	-1372783809	5/6/2010	18:40:49	4	BlockProc	SessionList	2	2	4	21	NULL	NULL	NULL	NULL	21	5	87	Scenes	NULL	NULL	NULL	Scenes	2	6390	0	573102	10	566812	0	NULL	NULL	scene/s_348.bmp	NULL	NULL	NULL	NULL	NULL	NULL	Repeat	FFSFFFSFFSSFSFSSSFSS	NULL	NULL	NULL	TrialProc	Relevant	BlockList	1	2	0	566702	10	566212	2	476	566688
TRSEscan	106	3	60.002	1	-1372783809	5/6/2010	18:40:49	4	BlockProc	SessionList	2	2	4	22	NULL	NULL	NULL	NULL	22	5	88		NULL	NULL	NULL	Scenes			NULL	NULL	NULL	NULL		588102	586212		NULL	NULL	NULL	NULL	NULL	NULL			NULL	NULL	NULL	FeedbackProc		BlockList	NULL	NULL	NULL	NULL	NULL	NULL	NULL	NULL	NULL
TRSEscan	106	4	60.001	1	484041991	5/6/2010	18:51:18	1	BlockProc	SessionList	2	2	1	1	-999999	53563	4	47379	1	2	1		1	2	2664	Both			NULL	NULL	NULL	NULL		NULL	NULL		65315	1	57246	0	66318	65328			0	68218	66328	InstrProc		BlockList	NULL	NULL	NULL	NULL	NULL	NULL	NULL	NULL	NULL
TRSEscan	106	4	60.001	1	484041991	5/6/2010	18:51:18	1	BlockProc	SessionList	2	2	1	2	NULL	NULL	NULL	NULL	2	2	2	Scenes	NULL	NULL	NULL	Both	1	2390	0	71218	10	68928	0	NULL	NULL	scene/s_308.bmp	NULL	NULL	NULL	NULL	NULL	NULL	Novel	SSFSSSFSFSSFFSFFFSFF	NULL	NULL	NULL	TrialProc	Relevant	BlockList	1	1	0	68818	10	68328	1	554	68882
TRSEscan	106	4	60.001	1	484041991	5/6/2010	18:51:18	1	BlockProc	SessionList	2	2	1	3	NULL	NULL	NULL	NULL	3	2	3	Scenes	NULL	NULL	NULL	Both	2	4390	0	76218	10	71928	0	NULL	NULL	scene/s_308.bmp	NULL	NULL	NULL	NULL	NULL	NULL	Repeat	SSFSSSFSFSSFFSFFFSFF	NULL	NULL	NULL	TrialProc	Relevant	BlockList	1	2	0	71818	10	71328	2	514	71842
TRSEscan	106	4	60.001	1	484041991	5/6/2010	18:51:18	1	BlockProc	SessionList	2	2	1	4	NULL	NULL	NULL	NULL	4	2	4	Faces	NULL	NULL	NULL	Both	1	6390	0	83218	10	76928	2	NULL	NULL	face/f_018.bmp	NULL	NULL	NULL	NULL	NULL	NULL	Novel	SSFSSSFSFSSFFSFFFSFF	NULL	NULL	NULL	TrialProc	Relevant	BlockList	1	1	0	76818	10	76328	1	498	76826
TRSEscan	106	4	60.001	1	484041991	5/6/2010	18:51:18	1	BlockProc	SessionList	2	2	1	5	NULL	NULL	NULL	NULL	5	2	5	Scenes	NULL	NULL	NULL	Both	2	4390	0	88218	10	83928	1	NULL	NULL	scene/s_308.bmp	NULL	NULL	NULL	NULL	NULL	NULL	Repeat	SSFSSSFSFSSFFSFFFSFF	NULL	NULL	NULL	TrialProc	Relevant	BlockList	1	2	0	83818	10	83328	2	770	84098
TRSEscan	106	4	60.001	1	484041991	5/6/2010	18:51:18	1	BlockProc	SessionList	2	2	1	6	NULL	NULL	NULL	NULL	6	2	6	Scenes	NULL	NULL	NULL	Both	1	2390	0	91218	10	88928	0	NULL	NULL	scene/s_369.bmp	NULL	NULL	NULL	NULL	NULL	NULL	Novel	SSFSSSFSFSSFFSFFFSFF	NULL	NULL	NULL	TrialProc	Relevant	BlockList	1	1	0	88818	10	88328	1	506	88834
TRSEscan	106	4	60.001	1	484041991	5/6/2010	18:51:18	1	BlockProc	SessionList	2	2	1	7	NULL	NULL	NULL	NULL	7	2	7	Scenes	NULL	NULL	NULL	Both	1	4390	0	96218	10	91928	0	NULL	NULL	scene/s_164.bmp	NULL	NULL	NULL	NULL	NULL	NULL	Novel	SSFSSSFSFSSFFSFFFSFF	NULL	NULL	NULL	TrialProc	Relevant	BlockList	1	1	0	91818	10	91328	1	626	91954
TRSEscan	106	4	60.001	1	484041991	5/6/2010	18:51:18	1	BlockProc	SessionList	2	2	1	8	NULL	NULL	NULL	NULL	8	2	8	Faces	NULL	NULL	NULL	Both	2	2390	0	99218	10	96928	3	NULL	NULL	face/f_018.bmp	NULL	NULL	NULL	NULL	NULL	NULL	Repeat	SSFSSSFSFSSFFSFFFSFF	NULL	NULL	NULL	TrialProc	Relevant	BlockList	1	2	0	96818	10	96328	2	434	96762
TRSEscan	106	4	60.001	1	484041991	5/6/2010	18:51:18	1	BlockProc	SessionList	2	2	1	9	NULL	NULL	NULL	NULL	9	2	9	Scenes	NULL	NULL	NULL	Both	2	6390	0	106218	10	99928	1	NULL	NULL	scene/s_164.bmp	NULL	NULL	NULL	NULL	NULL	NULL	Repeat	SSFSSSFSFSSFFSFFFSFF	NULL	NULL	NULL	TrialProc	Relevant	BlockList	0	2	0	99818	10	99328	1	882	100210
TRSEscan	106	4	60.001	1	484041991	5/6/2010	18:51:18	1	BlockProc	SessionList	2	2	1	10	NULL	NULL	NULL	NULL	10	2	10	Faces	NULL	NULL	NULL	Both	2	4390	0	111217	10	106927	1	NULL	NULL	face/f_018.bmp	NULL	NULL	NULL	NULL	NULL	NULL	Repeat	SSFSSSFSFSSFFSFFFSFF	NULL	NULL	NULL	TrialProc	Relevant	BlockList	1	2	0	106817	9	106327	2	563	106890
TRSEscan	106	4	60.001	1	484041991	5/6/2010	18:51:18	1	BlockProc	SessionList	2	2	1	11	NULL	NULL	NULL	NULL	11	2	11	Scenes	NULL	NULL	NULL	Both	1	6390	0	118217	10	111927	1	NULL	NULL	scene/s_296.bmp	NULL	NULL	NULL	NULL	NULL	NULL	Novel	SSFSSSFSFSSFFSFFFSFF	NULL	NULL	NULL	TrialProc	Relevant	BlockList	1	1	0	111817	10	111327	1	554	111881
TRSEscan	106	4	60.001	1	484041991	5/6/2010	18:51:18	1	BlockProc	SessionList	2	2	1	12	NULL	NULL	NULL	NULL	12	2	12	Scenes	NULL	NULL	NULL	Both	1	2390	0	121217	10	118927	0	NULL	NULL	scene/s_040.bmp	NULL	NULL	NULL	NULL	NULL	NULL	Novel	SSFSSSFSFSSFFSFFFSFF	NULL	NULL	NULL	TrialProc	Relevant	BlockList	1	1	0	118817	10	118327	1	690	119017
TRSEscan	106	4	60.001	1	484041991	5/6/2010	18:51:18	1	BlockProc	SessionList	2	2	1	13	NULL	NULL	NULL	NULL	13	2	13	Faces	NULL	NULL	NULL	Both	1	2390	0	124217	10	121927	2	NULL	NULL	face/f_099.bmp	NULL	NULL	NULL	NULL	NULL	NULL	Novel	SSFSSSFSFSSFFSFFFSFF	NULL	NULL	NULL	TrialProc	Relevant	BlockList	1	1	0	121817	10	121327	1	634	121961
TRSEscan	106	4	60.001	1	484041991	5/6/2010	18:51:18	1	BlockProc	SessionList	2	2	1	14	NULL	NULL	NULL	NULL	14	2	14	Faces	NULL	NULL	NULL	Both	1	6390	0	131217	10	124927	0	NULL	NULL	face/f_121.bmp	NULL	NULL	NULL	NULL	NULL	NULL	Novel	SSFSSSFSFSSFFSFFFSFF	NULL	NULL	NULL	TrialProc	Relevant	BlockList	1	1	0	124817	10	124327	1	650	124977
TRSEscan	106	4	60.001	1	484041991	5/6/2010	18:51:18	1	BlockProc	SessionList	2	2	1	15	NULL	NULL	NULL	NULL	15	2	15	Scenes	NULL	NULL	NULL	Both	1	4390	0	136217	10	131927	2	NULL	NULL	scene/s_011.bmp	NULL	NULL	NULL	NULL	NULL	NULL	Novel	SSFSSSFSFSSFFSFFFSFF	NULL	NULL	NULL	TrialProc	Relevant	BlockList	1	1	0	131817	10	131327	1	562	131889
TRSEscan	106	4	60.001	1	484041991	5/6/2010	18:51:18	1	BlockProc	SessionList	2	2	1	16	NULL	NULL	NULL	NULL	16	2	16	Faces	NULL	NULL	NULL	Both	2	6390	0	143217	10	136927	1	NULL	NULL	face/f_121.bmp	NULL	NULL	NULL	NULL	NULL	NULL	Repeat	SSFSSSFSFSSFFSFFFSFF	NULL	NULL	NULL	TrialProc	Relevant	BlockList	1	2	0	136817	10	136327	2	602	136929
TRSEscan	106	4	60.001	1	484041991	5/6/2010	18:51:18	1	BlockProc	SessionList	2	2	1	17	NULL	NULL	NULL	NULL	17	2	17	Faces	NULL	NULL	NULL	Both	1	2390	0	146217	10	143927	0	NULL	NULL	face/m_108.bmp	NULL	NULL	NULL	NULL	NULL	NULL	Novel	SSFSSSFSFSSFFSFFFSFF	NULL	NULL	NULL	TrialProc	Relevant	BlockList	1	1	0	143817	10	143327	1	498	143825
TRSEscan	106	4	60.001	1	484041991	5/6/2010	18:51:18	1	BlockProc	SessionList	2	2	1	18	NULL	NULL	NULL	NULL	18	2	18	Faces	NULL	NULL	NULL	Both	1	4390	0	151217	10	146927	0	NULL	NULL	face/m_047.bmp	NULL	NULL	NULL	NULL	NULL	NULL	Novel	SSFSSSFSFSSFFSFFFSFF	NULL	NULL	NULL	TrialProc	Relevant	BlockList	0	1	0	146817	10	146327	2	570	146897
TRSEscan	106	4	60.001	1	484041991	5/6/2010	18:51:18	1	BlockProc	SessionList	2	2	1	19	NULL	NULL	NULL	NULL	19	2	19	Scenes	NULL	NULL	NULL	Both	2	2390	0	154216	10	151926	3	NULL	NULL	scene/s_011.bmp	NULL	NULL	NULL	NULL	NULL	NULL	Repeat	SSFSSSFSFSSFFSFFFSFF	NULL	NULL	NULL	TrialProc	Relevant	BlockList	0	2	0	151816	9	151326	1	683	152009
TRSEscan	106	4	60.001	1	484041991	5/6/2010	18:51:18	1	BlockProc	SessionList	2	2	1	20	NULL	NULL	NULL	NULL	20	2	20	Faces	NULL	NULL	NULL	Both	1	4390	0	159216	10	154926	1	NULL	NULL	face/f_122.bmp	NULL	NULL	NULL	NULL	NULL	NULL	Novel	SSFSSSFSFSSFFSFFFSFF	NULL	NULL	NULL	TrialProc	Relevant	BlockList	1	1	0	154816	10	154326	1	939	155265
TRSEscan	106	4	60.001	1	484041991	5/6/2010	18:51:18	1	BlockProc	SessionList	2	2	1	21	NULL	NULL	NULL	NULL	21	2	21	Faces	NULL	NULL	NULL	Both	2	6390	0	166216	10	159926	0	NULL	NULL	face/f_122.bmp	NULL	NULL	NULL	NULL	NULL	NULL	Repeat	SSFSSSFSFSSFFSFFFSFF	NULL	NULL	NULL	TrialProc	Relevant	BlockList	1	2	0	159816	10	159326	2	634	159960
TRSEscan	106	4	60.001	1	484041991	5/6/2010	18:51:18	1	BlockProc	SessionList	2	2	1	22	NULL	NULL	NULL	NULL	22	2	22		NULL	NULL	NULL	Both			NULL	NULL	NULL	NULL		181216	179326		NULL	NULL	NULL	NULL	NULL	NULL			NULL	NULL	NULL	FeedbackProc		BlockList	NULL	NULL	NULL	NULL	NULL	NULL	NULL	NULL	NULL
TRSEscan	106	4	60.001	1	484041991	5/6/2010	18:51:18	2	BlockProc	SessionList	2	2	2	1	-999999	190176	10	181326	1	3	23		1	2	1008	Faces			NULL	NULL	NULL	NULL		NULL	NULL		200160	1	192210	0	201165	200175			0	203065	201175	InstrProc		BlockList	NULL	NULL	NULL	NULL	NULL	NULL	NULL	NULL	NULL
TRSEscan	106	4	60.001	1	484041991	5/6/2010	18:51:18	2	BlockProc	SessionList	2	2	2	2	NULL	NULL	NULL	NULL	2	3	24	Scenes	NULL	NULL	NULL	Faces	1	2390	0	206065	10	203775	0	NULL	NULL	scene/s_047.bmp	NULL	NULL	NULL	NULL	NULL	NULL	Novel	SSFSSSFSFSSFFSFFFSFF	NULL	NULL	NULL	TrialProc	Irrelevant	BlockList	1	1	0	203665	10	203175	1	537	203712
TRSEscan	106	4	60.001	1	484041991	5/6/2010	18:51:18	2	BlockProc	SessionList	2	2	2	3	NULL	NULL	NULL	NULL	3	3	25	Scenes	NULL	NULL	NULL	Faces	1	4390	0	211065	10	206775	0	NULL	NULL	scene/s_047.bmp	NULL	NULL	NULL	NULL	NULL	NULL	Repeat	SSFSSSFSFSSFFSFFFSFF	NULL	NULL	NULL	TrialProc	Irrelevant	BlockList	1	1	0	206665	10	206175	1	488	206663
TRSEscan	106	4	60.001	1	484041991	5/6/2010	18:51:18	2	BlockProc	SessionList	2	2	2	4	NULL	NULL	NULL	NULL	4	3	26	Faces	NULL	NULL	NULL	Faces	1	6390	0	218065	10	211775	2	NULL	NULL	face/m_035.bmp	NULL	NULL	NULL	NULL	NULL	NULL	Novel	SSFSSSFSFSSFFSFFFSFF	NULL	NULL	NULL	TrialProc	Relevant	BlockList	1	1	0	211665	10	211175	1	512	211687
TRSEscan	106	4	60.001	1	484041991	5/6/2010	18:51:18	2	BlockProc	SessionList	2	2	2	5	NULL	NULL	NULL	NULL	5	3	27	Scenes	NULL	NULL	NULL	Faces	1	4390	0	223065	10	218775	1	NULL	NULL	scene/s_047.bmp	NULL	NULL	NULL	NULL	NULL	NULL	Repeat	SSFSSSFSFSSFFSFFFSFF	NULL	NULL	NULL	TrialProc	Irrelevant	BlockList	1	1	0	218665	10	218175	1	528	218703
TRSEscan	106	4	60.001	1	484041991	5/6/2010	18:51:18	2	BlockProc	SessionList	2	2	2	6	NULL	NULL	NULL	NULL	6	3	28	Scenes	NULL	NULL	NULL	Faces	1	2390	0	226065	10	223775	0	NULL	NULL	scene/s_443.bmp	NULL	NULL	NULL	NULL	NULL	NULL	Novel	SSFSSSFSFSSFFSFFFSFF	NULL	NULL	NULL	TrialProc	Irrelevant	BlockList	1	1	0	223665	10	223175	1	496	223671
TRSEscan	106	4	60.001	1	484041991	5/6/2010	18:51:18	2	BlockProc	SessionList	2	2	2	7	NULL	NULL	NULL	NULL	7	3	29	Scenes	NULL	NULL	NULL	Faces	1	4390	0	231065	10	226775	0	NULL	NULL	scene/s_103.bmp	NULL	NULL	NULL	NULL	NULL	NULL	Novel	SSFSSSFSFSSFFSFFFSFF	NULL	NULL	NULL	TrialProc	Irrelevant	BlockList	1	1	0	226665	10	226175	1	456	226631
TRSEscan	106	4	60.001	1	484041991	5/6/2010	18:51:18	2	BlockProc	SessionList	2	2	2	8	NULL	NULL	NULL	NULL	8	3	30	Faces	NULL	NULL	NULL	Faces	2	2390	0	234065	10	231775	3	NULL	NULL	face/m_035.bmp	NULL	NULL	NULL	NULL	NULL	NULL	Repeat	SSFSSSFSFSSFFSFFFSFF	NULL	NULL	NULL	TrialProc	Relevant	BlockList	1	2	0	231665	10	231175	2	464	231639
TRSEscan	106	4	60.001	1	484041991	5/6/2010	18:51:18	2	BlockProc	SessionList	2	2	2	9	NULL	NULL	NULL	NULL	9	3	31	Scenes	NULL	NULL	NULL	Faces	1	6390	0	241065	10	234775	1	NULL	NULL	scene/s_103.bmp	NULL	NULL	NULL	NULL	NULL	NULL	Repeat	SSFSSSFSFSSFFSFFFSFF	NULL	NULL	NULL	TrialProc	Irrelevant	BlockList	1	1	0	234665	10	234175	1	440	234615
TRSEscan	106	4	60.001	1	484041991	5/6/2010	18:51:18	2	BlockProc	SessionList	2	2	2	10	NULL	NULL	NULL	NULL	10	3	32	Faces	NULL	NULL	NULL	Faces	2	4390	0	246065	10	241775	1	NULL	NULL	face/m_035.bmp	NULL	NULL	NULL	NULL	NULL	NULL	Repeat	SSFSSSFSFSSFFSFFFSFF	NULL	NULL	NULL	TrialProc	Relevant	BlockList	1	2	0	241665	10	241175	2	536	241711
TRSEscan	106	4	60.001	1	484041991	5/6/2010	18:51:18	2	BlockProc	SessionList	2	2	2	11	NULL	NULL	NULL	NULL	11	3	33	Scenes	NULL	NULL	NULL	Faces	1	6390	0	253064	10	246774	1	NULL	NULL	scene/s_149.bmp	NULL	NULL	NULL	NULL	NULL	NULL	Novel	SSFSSSFSFSSFFSFFFSFF	NULL	NULL	NULL	TrialProc	Irrelevant	BlockList	1	1	0	246664	9	246174	1	449	246623
TRSEscan	106	4	60.001	1	484041991	5/6/2010	18:51:18	2	BlockProc	SessionList	2	2	2	12	NULL	NULL	NULL	NULL	12	3	34	Scenes	NULL	NULL	NULL	Faces	1	2390	0	256064	10	253774	0	NULL	NULL	scene/s_006.bmp	NULL	NULL	NULL	NULL	NULL	NULL	Novel	SSFSSSFSFSSFFSFFFSFF	NULL	NULL	NULL	TrialProc	Irrelevant	BlockList	1	1	0	253664	10	253174	1	624	253798
TRSEscan	106	4	60.001	1	484041991	5/6/2010	18:51:18	2	BlockProc	SessionList	2	2	2	13	NULL	NULL	NULL	NULL	13	3	35	Faces	NULL	NULL	NULL	Faces	1	2390	0	259064	10	256774	2	NULL	NULL	face/m_143.bmp	NULL	NULL	NULL	NULL	NULL	NULL	Novel	SSFSSSFSFSSFFSFFFSFF	NULL	NULL	NULL	TrialProc	Relevant	BlockList	1	1	0	256664	10	256174	1	576	256750
TRSEscan	106	4	60.001	1	484041991	5/6/2010	18:51:18	2	BlockProc	SessionList	2	2	2	14	NULL	NULL	NULL	NULL	14	3	36	Faces	NULL	NULL	NULL	Faces	1	6390	0	266064	10	259774	0	NULL	NULL	face/m_076.bmp	NULL	NULL	NULL	NULL	NULL	NULL	Novel	SSFSSSFSFSSFFSFFFSFF	NULL	NULL	NULL	TrialProc	Relevant	BlockList	1	1	0	259664	10	259174	1	512	259686
