ExperimentName	Subject	Session	Display.RefreshRate	Group	RandomSeed	SessionDate	SessionTime	Block	Procedure[Block]	Running[Block]	SessionList	SessionList.Cycle	SessionList.Sample	Trial	BlockInstr.OffsetDelay	BlockInstr.OffsetTime	BlockInstr.OnsetDelay	BlockInstr.OnsetTime	BlockList	BlockList.Cycle	BlockList.Sample	Category	Challenge.ACC	Challenge.RESP	Challenge.RT	Condition	CorrResp	Delay	DelayFixation.OffsetDelay	DelayFixation.OffsetTime	DelayFixation.OnsetDelay	DelayFixation.OnsetTime	Distractors	Feedback.OffsetTime	Feedback.OnsetTime	Filename	GetReady.OffsetTime	GetReady.OnsetDelay	GetReady.OnsetTime	Go.OffsetDelay	Go.OffsetTime	Go.OnsetTime	Novelty	Permutation	PostGoFixation.OffsetDelay	PostGoFixation.OffsetTime	PostGoFixation.OnsetTime	Procedure[Trial]	Relevance	Running[Trial]	Stim.ACC	Stim.CRESP	Stim.OffsetDelay	Stim.OffsetTime	Stim.OnsetDelay	Stim.OnsetTime	Stim.RESP	Stim.RT	Stim.RTTime
TRSEscan	107	1	60.001	1	1610905615	5/7/2010	15:24:43	1	BlockProc	SessionList	2	1	2	1	-999999	92686	12	88866	1	2	1		1	2	1026	Faces			NULL	NULL	NULL	NULL		NULL	NULL		139885	1	94734	0	140889	139899			0	142789	140899	InstrProc		BlockList	NULL	NULL	NULL	NULL	NULL	NULL	NULL	NULL	NULL
TRSEscan	107	1	60.001	1	1610905615	5/7/2010	15:24:43	1	BlockProc	SessionList	2	1	2	2	NULL	NULL	NULL	NULL	2	2	2	Scenes	NULL	NULL	NULL	Faces	1	4390	0	147789	10	143499	0	NULL	NULL	scene/s_141.bmp	NULL	NULL	NULL	NULL	NULL	NULL	Novel	SFFSFSSSFSSFSSFFFSFF	NULL	NULL	NULL	TrialProc	Irrelevant	BlockList	1	1	0	143389	10	142899	1	818	143717
TRSEscan	107	1	60.001	1	1610905615	5/7/2010	15:24:43	1	BlockProc	SessionList	2	1	2	3	NULL	NULL	NULL	NULL	3	2	3	Faces	NULL	NULL	NULL	Faces	1	2390	0	150788	10	148498	1	NULL	NULL	face/f_006.bmp	NULL	NULL	NULL	NULL	NULL	NULL	Novel	SFFSFSSSFSSFSSFFFSFF	NULL	NULL	NULL	TrialProc	Relevant	BlockList	1	1	0	148388	9	147898	1	426	148324
TRSEscan	107	1	60.001	1	1610905615	5/7/2010	15:24:43	1	BlockProc	SessionList	2	1	2	4	NULL	NULL	NULL	NULL	4	2	4	Faces	NULL	NULL	NULL	Faces	1	2390	0	153788	10	151498	0	NULL	NULL	face/f_035.bmp	NULL	NULL	NULL	NULL	NULL	NULL	Novel	SFFSFSSSFSSFSSFFFSFF	NULL	NULL	NULL	TrialProc	Relevant	BlockList	1	1	0	151388	10	150898	1	802	151700
TRSEscan	107	1	60.001	1	1610905615	5/7/2010	15:24:43	1	BlockProc	SessionList	2	1	2	5	NULL	NULL	NULL	NULL	5	2	5	Scenes	NULL	NULL	NULL	Faces	1	4390	0	158788	10	154498	2	NULL	NULL	scene/s_340.bmp	NULL	NULL	NULL	NULL	NULL	NULL	Novel	SFFSFSSSFSSFSSFFFSFF	NULL	NULL	NULL	TrialProc	Irrelevant	BlockList	1	1	0	154388	10	153898	1	938	154836
TRSEscan	107	1	60.001	1	1610905615	5/7/2010	15:24:43	1	BlockProc	SessionList	2	1	2	6	NULL	NULL	NULL	NULL	6	2	6	Faces	NULL	NULL	NULL	Faces	2	6390	0	165788	10	159498	1	NULL	NULL	face/f_035.bmp	NULL	NULL	NULL	NULL	NULL	NULL	Repeat	SFFSFSSSFSSFSSFFFSFF	NULL	NULL	NULL	TrialProc	Relevant	BlockList	1	2	0	159388	10	158898	2	858	159756
TRSEscan	107	1	60.001	1	1610905615	5/7/2010	15:24:43	1	BlockProc	SessionList	2	1	2	7	NULL	NULL	NULL	NULL	7	2	7	Scenes	NULL	NULL	NULL	Faces	1	6390	0	172788	10	166498	1	NULL	NULL	scene/s_340.bmp	NULL	NULL	NULL	NULL	NULL	NULL	Repeat	SFFSFSSSFSSFSSFFFSFF	NULL	NULL	NULL	TrialProc	Irrelevant	BlockList	1	1	0	166388	10	165898	1	1002	166900
TRSEscan	107	1	60.001	1	1610905615	5/7/2010	15:24:43	1	BlockProc	SessionList	2	1	2	8	NULL	NULL	NULL	NULL	8	2	8	Scenes	NULL	NULL	NULL	Faces	1	4390	0	177788	10	173498	0	NULL	NULL	scene/s_121.bmp	NULL	NULL	NULL	NULL	NULL	NULL	Novel	SFFSFSSSFSSFSSFFFSFF	NULL	NULL	NULL	TrialProc	Irrelevant	BlockList	1	1	0	173388	10	172898	1	490	173388
TRSEscan	107	1	60.001	1	1610905615	5/7/2010	15:24:43	1	BlockProc	SessionList	2	1	2	9	NULL	NULL	NULL	NULL	9	2	9	Scenes	NULL	NULL	NULL	Faces	1	2390	0	180788	10	178498	0	NULL	NULL	scene/s_121.bmp	NULL	NULL	NULL	NULL	NULL	NULL	Repeat	SFFSFSSSFSSFSSFFFSFF	NULL	NULL	NULL	TrialProc	Irrelevant	BlockList	1	1	0	178388	10	177898	1	522	178420
TRSEscan	107	1	60.001	1	1610905615	5/7/2010	15:24:43	1	BlockProc	SessionList	2	1	2	10	NULL	NULL	NULL	NULL	10	2	10	Faces	NULL	NULL	NULL	Faces	1	4390	0	185788	10	181498	3	NULL	NULL	face/m_138.bmp	NULL	NULL	NULL	NULL	NULL	NULL	Novel	SFFSFSSSFSSFSSFFFSFF	NULL	NULL	NULL	TrialProc	Relevant	BlockList	1	1	0	181388	10	180898	1	674	181572
TRSEscan	107	1	60.001	1	1610905615	5/7/2010	15:24:43	1	BlockProc	SessionList	2	1	2	11	NULL	NULL	NULL	NULL	11	2	11	Scenes	NULL	NULL	NULL	Faces	1	6390	0	192788	10	186498	1	NULL	NULL	scene/s_121.bmp	NULL	NULL	NULL	NULL	NULL	NULL	Repeat	SFFSFSSSFSSFSSFFFSFF	NULL	NULL	NULL	TrialProc	Irrelevant	BlockList	1	1	0	186388	10	185898	1	530	186428
TRSEscan	107	1	60.001	1	1610905615	5/7/2010	15:24:43	1	BlockProc	SessionList	2	1	2	12	NULL	NULL	NULL	NULL	12	2	12	Scenes	NULL	NULL	NULL	Faces	1	2390	0	195787	10	193497	0	NULL	NULL	scene/s_138.bmp	NULL	NULL	NULL	NULL	NULL	NULL	Novel	SFFSFSSSFSSFSSFFFSFF	NULL	NULL	NULL	TrialProc	Irrelevant	BlockList	1	1	0	193387	9	192897	1	603	193500
TRSEscan	107	1	60.001	1	1610905615	5/7/2010	15:24:43	1	BlockProc	SessionList	2	1	2	13	NULL	NULL	NULL	NULL	13	2	13	Faces	NULL	NULL	NULL	Faces	2	4390	0	200787	10	196497	2	NULL	NULL	face/m_138.bmp	NULL	NULL	NULL	NULL	NULL	NULL	Repeat	SFFSFSSSFSSFSSFFFSFF	NULL	NULL	NULL	TrialProc	Relevant	BlockList	1	2	0	196387	10	195897	2	778	196675
TRSEscan	107	1	60.001	1	1610905615	5/7/2010	15:24:43	1	BlockProc	SessionList	2	1	2	14	NULL	NULL	NULL	NULL	14	2	14	Scenes	NULL	NULL	NULL	Faces	1	2390	0	203787	10	201497	1	NULL	NULL	scene/s_138.bmp	NULL	NULL	NULL	NULL	NULL	NULL	Repeat	SFFSFSSSFSSFSSFFFSFF	NULL	NULL	NULL	TrialProc	Irrelevant	BlockList	1	1	0	201387	10	200897	1	459	201356
TRSEscan	107	1	60.001	1	1610905615	5/7/2010	15:24:43	1	BlockProc	SessionList	2	1	2	15	NULL	NULL	NULL	NULL	15	2	15	Scenes	NULL	NULL	NULL	Faces	1	6390	0	210787	10	204497	0	NULL	NULL	scene/s_237.bmp	NULL	NULL	NULL	NULL	NULL	NULL	Novel	SFFSFSSSFSSFSSFFFSFF	NULL	NULL	NULL	TrialProc	Irrelevant	BlockList	1	1	0	204387	10	203897	1	514	204411
TRSEscan	107	1	60.001	1	1610905615	5/7/2010	15:24:43	1	BlockProc	SessionList	2	1	2	16	NULL	NULL	NULL	NULL	16	2	16	Faces	NULL	NULL	NULL	Faces	2	6390	0	217787	10	211497	2	NULL	NULL	face/m_138.bmp	NULL	NULL	NULL	NULL	NULL	NULL	Repeat	SFFSFSSSFSSFSSFFFSFF	NULL	NULL	NULL	TrialProc	Relevant	BlockList	1	2	0	211387	10	210897	2	1002	211899
TRSEscan	107	1	60.001	1	1610905615	5/7/2010	15:24:43	1	BlockProc	SessionList	2	1	2	17	NULL	NULL	NULL	NULL	17	2	17	Faces	NULL	NULL	NULL	Faces	1	2390	0	220787	10	218497	0	NULL	NULL	face/f_043.bmp	NULL	NULL	NULL	NULL	NULL	NULL	Novel	SFFSFSSSFSSFSSFFFSFF	NULL	NULL	NULL	TrialProc	Relevant	BlockList	1	1	0	218387	10	217897	1	738	218635
TRSEscan	107	1	60.001	1	1610905615	5/7/2010	15:24:43	1	BlockProc	SessionList	2	1	2	18	NULL	NULL	NULL	NULL	18	2	18	Faces	NULL	NULL	NULL	Faces	2	4390	0	225787	10	221497	0	NULL	NULL	face/f_043.bmp	NULL	NULL	NULL	NULL	NULL	NULL	Repeat	SFFSFSSSFSSFSSFFFSFF	NULL	NULL	NULL	TrialProc	Relevant	BlockList	1	2	0	221387	10	220897	2	658	221555
TRSEscan	107	1	60.001	1	1610905615	5/7/2010	15:24:43	1	BlockProc	SessionList	2	1	2	19	NULL	NULL	NULL	NULL	19	2	19	Scenes	NULL	NULL	NULL	Faces	1	2390	0	228787	10	226497	3	NULL	NULL	scene/s_397.bmp	NULL	NULL	NULL	NULL	NULL	NULL	Novel	SFFSFSSSFSSFSSFFFSFF	NULL	NULL	NULL	TrialProc	Irrelevant	BlockList	1	1	0	226387	10	225897	1	802	226699
TRSEscan	107	1	60.001	1	1610905615	5/7/2010	15:24:43	1	BlockProc	SessionList	2	1	2	20	NULL	NULL	NULL	NULL	20	2	20	Faces	NULL	NULL	NULL	Faces	1	6390	0	235787	10	229497	1	NULL	NULL	face/f_062.bmp	NULL	NULL	NULL	NULL	NULL	NULL	Novel	SFFSFSSSFSSFSSFFFSFF	NULL	NULL	NULL	TrialProc	Relevant	BlockList	1	1	0	229387	10	228897	1	914	229811
TRSEscan	107	1	60.001	1	1610905615	5/7/2010	15:24:43	1	BlockProc	SessionList	2	1	2	21	NULL	NULL	NULL	NULL	21	2	21	Faces	NULL	NULL	NULL	Faces	1	4390	0	240787	10	236497	0	NULL	NULL	face/f_051.bmp	NULL	NULL	NULL	NULL	NULL	NULL	Novel	SFFSFSSSFSSFSSFFFSFF	NULL	NULL	NULL	TrialProc	Relevant	BlockList	1	1	0	236387	10	235897	1	970	236867
TRSEscan	107	1	60.001	1	1610905615	5/7/2010	15:24:43	1	BlockProc	SessionList	2	1	2	22	NULL	NULL	NULL	NULL	22	2	22		NULL	NULL	NULL	Faces			NULL	NULL	NULL	NULL		255786	253896		NULL	NULL	NULL	NULL	NULL	NULL			NULL	NULL	NULL	FeedbackProc		BlockList	NULL	NULL	NULL	NULL	NULL	NULL	NULL	NULL	NULL
TRSEscan	107	1	60.001	1	1610905615	5/7/2010	15:24:43	2	BlockProc	SessionList	2	1	3	1	-999999	258042	10	255896	1	3	23		1	2	2260	Scenes			NULL	NULL	NULL	NULL		NULL	NULL		276578	1	261314	0	277569	276579			0	279469	277579	InstrProc		BlockList	NULL	NULL	NULL	NULL	NULL	NULL	NULL	NULL	NULL
TRSEscan	107	1	60.001	1	1610905615	5/7/2010	15:24:43	2	BlockProc	SessionList	2	1	3	2	NULL	NULL	NULL	NULL	2	3	24	Scenes	NULL	NULL	NULL	Scenes	1	4390	0	284469	10	280179	0	NULL	NULL	scene/s_267.bmp	NULL	NULL	NULL	NULL	NULL	NULL	Novel	SFFSFSSSFSSFSSFFFSFF	NULL	NULL	NULL	TrialProc	Relevant	BlockList	1	1	0	280069	10	279579	1	615	280194
TRSEscan	107	1	60.001	1	1610905615	5/7/2010	15:24:43	2	BlockProc	SessionList	2	1	3	3	NULL	NULL	NULL	NULL	3	3	25	Faces	NULL	NULL	NULL	Scenes	1	2390	0	287469	10	285179	1	NULL	NULL	face/m_008.bmp	NULL	NULL	NULL	NULL	NULL	NULL	Novel	SFFSFSSSFSSFSSFFFSFF	NULL	NULL	NULL	TrialProc	Irrelevant	BlockList	1	1	0	285069	10	284579	1	575	285154
TRSEscan	107	1	60.001	1	1610905615	5/7/2010	15:24:43	2	BlockProc	SessionList	2	1	3	4	NULL	NULL	NULL	NULL	4	3	26	Faces	NULL	NULL	NULL	Scenes	1	2390	0	290469	10	288179	0	NULL	NULL	face/m_054.bmp	NULL	NULL	NULL	NULL	NULL	NULL	Novel	SFFSFSSSFSSFSSFFFSFF	NULL	NULL	NULL	TrialProc	Irrelevant	BlockList	1	1	0	288069	10	287579	1	575	288154
TRSEscan	107	1	60.001	1	1610905615	5/7/2010	15:24:43	2	BlockProc	SessionList	2	1	3	5	NULL	NULL	NULL	NULL	5	3	27	Scenes	NULL	NULL	NULL	Scenes	1	4390	0	295469	10	291179	2	NULL	NULL	scene/s_410.bmp	NULL	NULL	NULL	NULL	NULL	NULL	Novel	SFFSFSSSFSSFSSFFFSFF	NULL	NULL	NULL	TrialProc	Relevant	BlockList	1	1	0	291069	10	290579	1	671	291250
TRSEscan	107	1	60.001	1	1610905615	5/7/2010	15:24:43	2	BlockProc	SessionList	2	1	3	6	NULL	NULL	NULL	NULL	6	3	28	Faces	NULL	NULL	NULL	Scenes	1	6390	0	302469	10	296179	1	NULL	NULL	face/m_054.bmp	NULL	NULL	NULL	NULL	NULL	NULL	Repeat	SFFSFSSSFSSFSSFFFSFF	NULL	NULL	NULL	TrialProc	Irrelevant	BlockList	1	1	0	296069	10	295579	1	446	296025
TRSEscan	107	1	60.001	1	1610905615	5/7/2010	15:24:43	2	BlockProc	SessionList	2	1	3	7	NULL	NULL	NULL	NULL	7	3	29	Scenes	NULL	NULL	NULL	Scenes	2	6390	0	309468	10	303178	1	NULL	NULL	scene/s_410.bmp	NULL	NULL	NULL	NULL	NULL	NULL	Repeat	SFFSFSSSFSSFSSFFFSFF	NULL	NULL	NULL	TrialProc	Relevant	BlockList	1	2	0	303068	9	302578	2	511	303089
TRSEscan	107	1	60.001	1	1610905615	5/7/2010	15:24:43	2	BlockProc	SessionList	2	1	3	8	NULL	NULL	NULL	NULL	8	3	30	Scenes	NULL	NULL	NULL	Scenes	1	4390	0	314468	10	310178	0	NULL	NULL	scene/s_234.bmp	NULL	NULL	NULL	NULL	NULL	NULL	Novel	SFFSFSSSFSSFSSFFFSFF	NULL	NULL	NULL	TrialProc	Relevant	BlockList	1	1	0	310068	10	309578	1	535	310113
TRSEscan	107	1	60.001	1	1610905615	5/7/2010	15:24:43	2	BlockProc	SessionList	2	1	3	9	NULL	NULL	NULL	NULL	9	3	31	Scenes	NULL	NULL	NULL	Scenes	2	2390	0	317468	10	315178	0	NULL	NULL	scene/s_234.bmp	NULL	NULL	NULL	NULL	NULL	NULL	Repeat	SFFSFSSSFSSFSSFFFSFF	NULL	NULL	NULL	TrialProc	Relevant	BlockList	1	2	0	315068	10	314578	2	551	315129
TRSEscan	107	1	60.001	1	1610905615	5/7/2010	15:24:43	2	BlockProc	SessionList	2	1	3	10	NULL	NULL	NULL	NULL	10	3	32	Faces	NULL	NULL	NULL	Scenes	1	4390	0	322468	10	318178	3	NULL	NULL	face/m_057.bmp	NULL	NULL	NULL	NULL	NULL	NULL	Novel	SFFSFSSSFSSFSSFFFSFF	NULL	NULL	NULL	TrialProc	Irrelevant	BlockList	1	1	0	318068	10	317578	1	503	318081
TRSEscan	107	1	60.001	1	1610905615	5/7/2010	15:24:43	2	BlockProc	SessionList	2	1	3	11	NULL	NULL	NULL	NULL	11	3	33	Scenes	NULL	NULL	NULL	Scenes	2	6390	0	329468	10	323178	1	NULL	NULL	scene/s_234.bmp	NULL	NULL	NULL	NULL	NULL	NULL	Repeat	SFFSFSSSFSSFSSFFFSFF	NULL	NULL	NULL	TrialProc	Relevant	BlockList	1	2	0	323068	10	322578	2	791	323369
TRSEscan	107	1	60.001	1	1610905615	5/7/2010	15:24:43	2	BlockProc	SessionList	2	1	3	12	NULL	NULL	NULL	NULL	12	3	34	Scenes	NULL	NULL	NULL	Scenes	1	2390	0	332468	10	330178	0	NULL	NULL	scene/s_044.bmp	NULL	NULL	NULL	NULL	NULL	NULL	Novel	SFFSFSSSFSSFSSFFFSFF	NULL	NULL	NULL	TrialProc	Relevant	BlockList	1	1	0	330068	10	329578	1	495	330073
TRSEscan	107	1	60.001	1	1610905615	5/7/2010	15:24:43	2	BlockProc	SessionList	2	1	3	13	NULL	NULL	NULL	NULL	13	3	35	Faces	NULL	NULL	NULL	Scenes	1	4390	0	337468	10	333178	2	NULL	NULL	face/m_057.bmp	NULL	NULL	NULL	NULL	NULL	NULL	Repeat	SFFSFSSSFSSFSSFFFSFF	NULL	NULL	NULL	TrialProc	Irrelevant	BlockList	1	1	0	333068	10	332578	1	887	333465
TRSEscan	107	1	60.001	1	1610905615	5/7/2010	15:24:43	2	BlockProc	SessionList	2	1	3	14	NULL	NULL	NULL	NULL	14	3	36	Scenes	NULL	NULL	NULL	Scenes	2	2390	0	340468	10	338178	1	NULL	NULL	scene/s_044.bmp	NULL	NULL	NULL	NULL	NULL	NULL	Repeat	SFFSFSSSFSSFSSFFFSFF	NULL	NULL	NULL	TrialProc	Relevant	BlockList	1	2	0	338068	10	337578	2	710	338288
TRSEscan	107	1	60.001	1	1610905615	5/7/2010	15:24:43	2	BlockProc	SessionList	2	1	3	15	NULL	NULL	NULL	NULL	15	3	37	Scenes	NULL	NULL	NULL	Scenes	1	6390	0	347468	10	341178	0	NULL	NULL	scene/s_160.bmp	NULL	NULL	NULL	NULL	NULL	NULL	Novel	SFFSFSSSFSSFSSFFFSFF	NULL	NULL	NULL	TrialProc	Relevant	BlockList	1	1	0	341068	10	340578	1	566	341144
TRSEscan	107	1	60.001	1	1610905615	5/7/2010	15:24:43	2	BlockProc	SessionList	2	1	3	16	NULL	NULL	NULL	NULL	16	3	38	Faces	NULL	NULL	NULL	Scenes	1	6390	0	354468	10	348178	2	NULL	NULL	face/m_057.bmp	NULL	NULL	NULL	NULL	NULL	NULL	Repeat	SFFSFSSSFSSFSSFFFSFF	NULL	NULL	NULL	TrialProc	Irrelevant	BlockList	1	1	0	348068	10	347578	1	606	348184
TRSEscan	107	1	60.001	1	1610905615	5/7/2010	15:24:43	2	BlockProc	SessionList	2	1	3	17	NULL	NULL	NULL	NULL	17	3	39	Faces	NULL	NULL	NULL	Scenes	1	2390	0	357467	10	355177	0	NULL	NULL	face/m_009.bmp	NULL	NULL	NULL	NULL	NULL	NULL	Novel	SFFSFSSSFSSFSSFFFSFF	NULL	NULL	NULL	TrialProc	Irrelevant	BlockList	1	1	0	355067	9	354577	1	527	355104
TRSEscan	107	1	60.001	1	1610905615	5/7/2010	15:24:43	2	BlockProc	SessionList	2	1	3	18	NULL	NULL	NULL	NULL	18	3	40	Faces	NULL	NULL	NULL	Scenes	1	4390	0	362467	10	358177	0	NULL	NULL	face/m_009.bmp	NULL	NULL	NULL	NULL	NULL	NULL	Repeat	SFFSFSSSFSSFSSFFFSFF	NULL	NULL	NULL	TrialProc	Irrelevant	BlockList	1	1	0	358067	10	357577	1	407	357984
TRSEscan	107	1	60.001	1	1610905615	5/7/2010	15:24:43	2	BlockProc	SessionList	2	1	3	19	NULL	NULL	NULL	NULL	19	3	41	Scenes	NULL	NULL	NULL	Scenes	1	2390	0	365467	10	363177	3	NULL	NULL	scene/s_069.bmp	NULL	NULL	NULL	NULL	NULL	NULL	Novel	SFFSFSSSFSSFSSFFFSFF	NULL	NULL	NULL	TrialProc	Relevant	BlockList	1	1	0	363067	10	362577	1	775	363352
TRSEscan	107	1	60.001	1	1610905615	5/7/2010	15:24:43	2	BlockProc	SessionList	2	1	3	20	NULL	NULL	NULL	NULL	20	3	42	Faces	NULL	NULL	NULL	Scenes	1	6390	0	372467	10	366177	1	NULL	NULL	face/f_075.bmp	NULL	NULL	NULL	NULL	NULL	NULL	Novel	SFFSFSSSFSSFSSFFFSFF	NULL	NULL	NULL	TrialProc	Irrelevant	BlockList	1	1	0	366067	10	365577	1	679	366256
TRSEscan	107	1	60.001	1	1610905615	5/7/2010	15:24:43	2	BlockProc	SessionList	2	1	3	21	NULL	NULL	NULL	NULL	21	3	43	Faces	NULL	NULL	NULL	Scenes	1	4390	0	377467	10	373177	0	NULL	NULL	face/f_133.bmp	NULL	NULL	NULL	NULL	NULL	NULL	Novel	SFFSFSSSFSSFSSFFFSFF	NULL	NULL	NULL	TrialProc	Irrelevant	BlockList	1	1	0	373067	10	372577	1	535	373112
TRSEscan	107	1	60.001	1	1610905615	5/7/2010	15:24:43	2	BlockProc	SessionList	2	1	3	22	NULL	NULL	NULL	NULL	22	3	44		NULL	NULL	NULL	Scenes			NULL	NULL	NULL	NULL		392467	390577		NULL	NULL	NULL	NULL	NULL	NULL			NULL	NULL	NULL	FeedbackProc		BlockList	NULL	NULL	NULL	NULL	NULL	NULL	NULL	NULL	NULL
TRSEscan	107	1	60.001	1	1610905615	5/7/2010	15:24:43	3	BlockProc	SessionList	2	1	4	1	-999999	395791	10	392577	1	4	45		1	2	1278	Categorize			NULL	NULL	NULL	NULL		NULL	NULL		411759	1	398077	0	412750	411760			0	414649	412759	InstrProc		BlockList	NULL	NULL	NULL	NULL	NULL	NULL	NULL	NULL	NULL
TRSEscan	107	1	60.001	1	1610905615	5/7/2010	15:24:43	3	BlockProc	SessionList	2	1	4	2	NULL	NULL	NULL	NULL	2	4	46	Scenes	NULL	NULL	NULL	Categorize	2	4390	0	419649	10	415359	0	NULL	NULL	scene/s_161.bmp	NULL	NULL	NULL	NULL	NULL	NULL	Novel	SFFSFSSSFSSFSSFFFSFF	NULL	NULL	NULL	TrialProc	Irrelevant	BlockList	1	2	0	415249	10	414759	2	816	415575
TRSEscan	107	1	60.001	1	1610905615	5/7/2010	15:24:43	3	BlockProc	SessionList	2	1	4	3	NULL	NULL	NULL	NULL	3	4	47	Faces	NULL	NULL	NULL	Categorize	1	2390	0	422649	10	420359	1	NULL	NULL	face/f_028.bmp	NULL	NULL	NULL	NULL	NULL	NULL	Novel	SFFSFSSSFSSFSSFFFSFF	NULL	NULL	NULL	TrialProc	Irrelevant	BlockList	1	1	0	420249	10	419759	1	528	420287
TRSEscan	107	1	60.001	1	1610905615	5/7/2010	15:24:43	3	BlockProc	SessionList	2	1	4	4	NULL	NULL	NULL	NULL	4	4	48	Faces	NULL	NULL	NULL	Categorize	1	2390	0	425649	10	423359	0	NULL	NULL	face/m_068.bmp	NULL	NULL	NULL	NULL	NULL	NULL	Novel	SFFSFSSSFSSFSSFFFSFF	NULL	NULL	NULL	TrialProc	Irrelevant	BlockList	1	1	0	423249	10	422759	1	464	423223
TRSEscan	107	1	60.001	1	1610905615	5/7/2010	15:24:43	3	BlockProc	SessionList	2	1	4	5	NULL	NULL	NULL	NULL	5	4	49	Scenes	NULL	NULL	NULL	Categorize	2	4390	0	430649	10	426359	2	NULL	NULL	scene/s_193.bmp	NULL	NULL	NULL	NULL	NULL	NULL	Novel	SFFSFSSSFSSFSSFFFSFF	NULL	NULL	NULL	TrialProc	Irrelevant	BlockList	1	2	0	426249	10	425759	2	464	426223
TRSEscan	107	1	60.001	1	1610905615	5/7/2010	15:24:43	3	BlockProc	SessionList	2	1	4	6	NULL	NULL	NULL	NULL	6	4	50	Faces	NULL	NULL	NULL	Categorize	1	6390	0	437649	10	431359	1	NULL	NULL	face/m_068.bmp	NULL	NULL	NULL	NULL	NULL	NULL	Repeat	SFFSFSSSFSSFSSFFFSFF	NULL	NULL	NULL	TrialProc	Irrelevant	BlockList	1	1	0	431249	10	430759	1	424	431183
TRSEscan	107	1	60.001	1	1610905615	5/7/2010	15:24:43	3	BlockProc	SessionList	2	1	4	7	NULL	NULL	NULL	NULL	7	4	51	Scenes	NULL	NULL	NULL	Categorize	2	6390	0	444649	10	438359	1	NULL	NULL	scene/s_193.bmp	NULL	NULL	NULL	NULL	NULL	NULL	Repeat	SFFSFSSSFSSFSSFFFSFF	NULL	NULL	NULL	TrialProc	Irrelevant	BlockList	1	2	0	438249	10	437759	2	392	438151
TRSEscan	107	1	60.001	1	1610905615	5/7/2010	15:24:43	3	BlockProc	SessionList	2	1	4	8	NULL	NULL	NULL	NULL	8	4	52	Scenes	NULL	NULL	NULL	Categorize	2	4390	0	449649	10	445359	0	NULL	NULL	scene/s_040.bmp	NULL	NULL	NULL	NULL	NULL	NULL	Novel	SFFSFSSSFSSFSSFFFSFF	NULL	NULL	NULL	TrialProc	Irrelevant	BlockList	1	2	0	445249	10	444759	2	575	445334
TRSEscan	107	1	60.001	1	1610905615	5/7/2010	15:24:43	3	BlockProc	SessionList	2	1	4	9	NULL	NULL	NULL	NULL	9	4	53	Scenes	NULL	NULL	NULL	Categorize	2	2390	0	452649	10	450359	0	NULL	NULL	scene/s_040.bmp	NULL	NULL	NULL	NULL	NULL	NULL	Repeat	SFFSFSSSFSSFSSFFFSFF	NULL	NULL	NULL	TrialProc	Irrelevant	BlockList	1	2	0	450249	10	449759	2	559	450318
TRSEscan	107	1	60.001	1	1610905615	5/7/2010	15:24:43	3	BlockProc	SessionList	2	1	4	10	NULL	NULL	NULL	NULL	10	4	54	Faces	NULL	NULL	NULL	Categorize	1	4390	0	457649	10	453359	3	NULL	NULL	face/f_030.bmp	NULL	NULL	NULL	NULL	NULL	NULL	Novel	SFFSFSSSFSSFSSFFFSFF	NULL	NULL	NULL	TrialProc	Irrelevant	BlockList	1	1	0	453249	10	452759	1	431	453190
TRSEscan	107	1	60.001	1	1610905615	5/7/2010	15:24:43	3	BlockProc	SessionList	2	1	4	11	NULL	NULL	NULL	NULL	11	4	55	Scenes	NULL	NULL	NULL	Categorize	2	6390	0	464649	10	458359	1	NULL	NULL	scene/s_040.bmp	NULL	NULL	NULL	NULL	NULL	NULL	Repeat	SFFSFSSSFSSFSSFFFSFF	NULL	NULL	NULL	TrialProc	Irrelevant	BlockList	1	2	0	458249	10	457759	2	439	458198
TRSEscan	107	1	60.001	1	1610905615	5/7/2010	15:24:43	3	BlockProc	SessionList	2	1	4	12	NULL	NULL	NULL	NULL	12	4	56	Scenes	NULL	NULL	NULL	Categorize	2	2390	0	467648	10	465358	0	NULL	NULL	scene/s_279.bmp	NULL	NULL	NULL	NULL	NULL	NULL	Novel	SFFSFSSSFSSFSSFFFSFF	NULL	NULL	NULL	TrialProc	Irrelevant	BlockList	1	2	0	465248	9	464758	2	472	465230
TRSEscan	107	1	60.001	1	1610905615	5/7/2010	15:24:43	3	BlockProc	SessionList	2	1	4	13	NULL	NULL	NULL	NULL	13	4	57	Faces	NULL	NULL	NULL	Categorize	1	4390	0	472648	10	468358	2	NULL	NULL	face/f_030.bmp	NULL	NULL	NULL	NULL	NULL	NULL	Repeat	SFFSFSSSFSSFSSFFFSFF	NULL	NULL	NULL	TrialProc	Irrelevant	BlockList	1	1	0	468248	10	467758	1	472	468230
TRSEscan	107	1	60.001	1	1610905615	5/7/2010	15:24:43	3	BlockProc	SessionList	2	1	4	14	NULL	NULL	NULL	NULL	14	4	58	Scenes	NULL	NULL	NULL	Categorize	2	2390	0	475648	10	473358	1	NULL	NULL	scene/s_279.bmp	NULL	NULL	NULL	NULL	NULL	NULL	Repeat	SFFSFSSSFSSFSSFFFSFF	NULL	NULL	NULL	TrialProc	Irrelevant	BlockList	1	2	0	473248	10	472758	2	472	473230
TRSEscan	107	1	60.001	1	1610905615	5/7/2010	15:24:43	3	BlockProc	SessionList	2	1	4	15	NULL	NULL	NULL	NULL	15	4	59	Scenes	NULL	NULL	NULL	Categorize	2	6390	0	482648	10	476358	0	NULL	NULL	scene/s_333.bmp	NULL	NULL	NULL	NULL	NULL	NULL	Novel	SFFSFSSSFSSFSSFFFSFF	NULL	NULL	NULL	TrialProc	Irrelevant	BlockList	1	2	0	476248	10	475758	2	520	476278
TRSEscan	107	1	60.001	1	1610905615	5/7/2010	15:24:43	3	BlockProc	SessionList	2	1	4	16	NULL	NULL	NULL	NULL	16	4	60	Faces	NULL	NULL	NULL	Categorize	1	6390	0	489648	10	483358	2	NULL	NULL	face/f_030.bmp	NULL	NULL	NULL	NULL	NULL	NULL	Repeat	SFFSFSSSFSSFSSFFFSFF	NULL	NULL	NULL	TrialProc	Irrelevant	BlockList	1	1	0	483248	10	482758	1	495	483253
TRSEscan	107	1	60.001	1	1610905615	5/7/2010	15:24:43	3	BlockProc	SessionList	2	1	4	17	NULL	NULL	NULL	NULL	17	4	61	Faces	NULL	NULL	NULL	Categorize	1	2390	0	492648	10	490358	0	NULL	NULL	face/m_065.bmp	NULL	NULL	NULL	NULL	NULL	NULL	Novel	SFFSFSSSFSSFSSFFFSFF	NULL	NULL	NULL	TrialProc	Irrelevant	BlockList	1	1	0	490248	10	489758	1	559	490317
TRSEscan	107	1	60.001	1	1610905615	5/7/2010	15:24:43	3	BlockProc	SessionList	2	1	4	18	NULL	NULL	NULL	NULL	18	4	62	Faces	NULL	NULL	NULL	Categorize	1	4390	0	497648	10	493358	0	NULL	NULL	face/m_065.bmp	NULL	NULL	NULL	NULL	NULL	NULL	Repeat	SFFSFSSSFSSFSSFFFSFF	NULL	NULL	NULL	TrialProc	Irrelevant	BlockList	1	1	0	493248	10	492758	1	439	493197
TRSEscan	107	1	60.001	1	1610905615	5/7/2010	15:24:43	3	BlockProc	SessionList	2	1	4	19	NULL	NULL	NULL	NULL	19	4	63	Scenes	NULL	NULL	NULL	Categorize	2	2390	0	500648	10	498358	3	NULL	NULL	scene/s_302.bmp	NULL	NULL	NULL	NULL	NULL	NULL	Novel	SFFSFSSSFSSFSSFFFSFF	NULL	NULL	NULL	TrialProc	Irrelevant	BlockList	1	2	0	498248	10	497758	2	439	498197
TRSEscan	107	1	60.001	1	1610905615	5/7/2010	15:24:43	3	BlockProc	SessionList	2	1	4	20	NULL	NULL	NULL	NULL	20	4	64	Faces	NULL	NULL	NULL	Categorize	1	6390	0	507648	10	501358	1	NULL	NULL	face/f_116.bmp	NULL	NULL	NULL	NULL	NULL	NULL	Novel	SFFSFSSSFSSFSSFFFSFF	NULL	NULL	NULL	TrialProc	Irrelevant	BlockList	1	1	0	501248	10	500758	1	431	501189
TRSEscan	107	1	60.001	1	1610905615	5/7/2010	15:24:43	3	BlockProc	SessionList	2	1	4	21	NULL	NULL	NULL	NULL	21	4	65	Faces	NULL	NULL	NULL	Categorize	1	4390	0	512647	10	508357	0	NULL	NULL	face/f_147.bmp	NULL	NULL	NULL	NULL	NULL	NULL	Novel	SFFSFSSSFSSFSSFFFSFF	NULL	NULL	NULL	TrialProc	Irrelevant	BlockList	0	1	0	508247	9	507757	2	408	508165
TRSEscan	107	1	60.001	1	1610905615	5/7/2010	15:24:43	3	BlockProc	SessionList	2	1	4	22	NULL	NULL	NULL	NULL	22	4	66		NULL	NULL	NULL	Categorize			NULL	NULL	NULL	NULL		527647	525757		NULL	NULL	NULL	NULL	NULL	NULL			NULL	NULL	NULL	FeedbackProc		BlockList	NULL	NULL	NULL	NULL	NULL	NULL	NULL	NULL	NULL
TRSEscan	107	1	60.001	1	1610905615	5/7/2010	15:24:43	4	BlockProc	SessionList	2	1	5	1	-999999	530997	10	527757	1	5	67		1	2	1022	Both			NULL	NULL	NULL	NULL		NULL	NULL		550084	1	533041	0	551080	550090			0	552980	551090	InstrProc		BlockList	NULL	NULL	NULL	NULL	NULL	NULL	NULL	NULL	NULL
TRSEscan	107	1	60.001	1	1610905615	5/7/2010	15:24:43	4	BlockProc	SessionList	2	1	5	2	NULL	NULL	NULL	NULL	2	5	68	Scenes	NULL	NULL	NULL	Both	1	4390	0	557980	10	553690	0	NULL	NULL	scene/s_418.bmp	NULL	NULL	NULL	NULL	NULL	NULL	Novel	SFFSFSSSFSSFSSFFFSFF	NULL	NULL	NULL	TrialProc	Relevant	BlockList	1	1	0	553580	10	553090	1	906	553996
TRSEscan	107	1	60.001	1	1610905615	5/7/2010	15:24:43	4	BlockProc	SessionList	2	1	5	3	NULL	NULL	NULL	NULL	3	5	69	Faces	NULL	NULL	NULL	Both	1	2390	0	560980	10	558690	1	NULL	NULL	face/f_002.bmp	NULL	NULL	NULL	NULL	NULL	NULL	Novel	SFFSFSSSFSSFSSFFFSFF	NULL	NULL	NULL	TrialProc	Relevant	BlockList	1	1	0	558580	10	558090	1	434	558524
TRSEscan	107	1	60.001	1	1610905615	5/7/2010	15:24:43	4	BlockProc	SessionList	2	1	5	4	NULL	NULL	NULL	NULL	4	5	70	Faces	NULL	NULL	NULL	Both	1	2390	0	563980	10	561690	0	NULL	NULL	face/f_037.bmp	NULL	NULL	NULL	NULL	NULL	NULL	Novel	SFFSFSSSFSSFSSFFFSFF	NULL	NULL	NULL	TrialProc	Relevant	BlockList	1	1	0	561580	10	561090	1	650	561740
TRSEscan	107	1	60.001	1	1610905615	5/7/2010	15:24:43	4	BlockProc	SessionList	2	1	5	5	NULL	NULL	NULL	NULL	5	5	71	Scenes	NULL	NULL	NULL	Both	1	4390	0	568980	10	564690	2	NULL	NULL	scene/s_089.bmp	NULL	NULL	NULL	NULL	NULL	NULL	Novel	SFFSFSSSFSSFSSFFFSFF	NULL	NULL	NULL	TrialProc	Relevant	BlockList	1	1	0	564580	10	564090	1	834	564924
TRSEscan	107	1	60.001	1	1610905615	5/7/2010	15:24:43	4	BlockProc	SessionList	2	1	5	6	NULL	NULL	NULL	NULL	6	5	72	Faces	NULL	NULL	NULL	Both	2	6390	0	575979	10	569689	1	NULL	NULL	face/f_037.bmp	NULL	NULL	NULL	NULL	NULL	NULL	Repeat	SFFSFSSSFSSFSSFFFSFF	NULL	NULL	NULL	TrialProc	Relevant	BlockList	1	2	0	569579	9	569089	2	603	569692
TRSEscan	107	1	60.001	1	1610905615	5/7/2010	15:24:43	4	BlockProc	SessionList	2	1	5	7	NULL	NULL	NULL	NULL	7	5	73	Scenes	NULL	NULL	NULL	Both	2	6390	0	582979	10	576689	1	NULL	NULL	scene/s_089.bmp	NULL	NULL	NULL	NULL	NULL	NULL	Repeat	SFFSFSSSFSSFSSFFFSFF	NULL	NULL	NULL	TrialProc	Relevant	BlockList	1	2	0	576579	10	576089	2	675	576764
TRSEscan	107	1	60.001	1	1610905615	5/7/2010	15:24:43	4	BlockProc	SessionList	2	1	5	8	NULL	NULL	NULL	NULL	8	5	74	Scenes	NULL	NULL	NULL	Both	1	4390	0	587979	10	583689	0	NULL	NULL	scene/s_346.bmp	NULL	NULL	NULL	NULL	NULL	NULL	Novel	SFFSFSSSFSSFSSFFFSFF	NULL	NULL	NULL	TrialProc	Relevant	BlockList	1	1	0	583579	10	583089	1	770	583859
TRSEscan	107	1	60.001	1	1610905615	5/7/2010	15:24:43	4	BlockProc	SessionList	2	1	5	9	NULL	NULL	NULL	NULL	9	5	75	Scenes	NULL	NULL	NULL	Both	2	2390	0	590979	10	588689	0	NULL	NULL	scene/s_346.bmp	NULL	NULL	NULL	NULL	NULL	NULL	Repeat	SFFSFSSSFSSFSSFFFSFF	NULL	NULL	NULL	TrialProc	Relevant	BlockList	1	2	0	588579	10	588089	2	786	588875
TRSEscan	107	1	60.001	1	1610905615	5/7/2010	15:24:43	4	BlockProc	SessionList	2	1	5	10	NULL	NULL	NULL	NULL	10	5	76	Faces	NULL	NULL	NULL	Both	1	4390	0	595979	10	591689	3	NULL	NULL	face/m_100.bmp	NULL	NULL	NULL	NULL	NULL	NULL	Novel	SFFSFSSSFSSFSSFFFSFF	NULL	NULL	NULL	TrialProc	Relevant	BlockList	1	1	0	591579	10	591089	1	682	591771
TRSEscan	107	1	60.001	1	1610905615	5/7/2010	15:24:43	4	BlockProc	SessionList	2	1	5	11	NULL	NULL	NULL	NULL	11	5	77	Scenes	NULL	NULL	NULL	Both	2	6390	0	602979	10	596689	1	NULL	NULL	scene/s_346.bmp	NULL	NULL	NULL	NULL	NULL	NULL	Repeat	SFFSFSSSFSSFSSFFFSFF	NULL	NULL	NULL	TrialProc	Relevant	BlockList	1	2	0	596579	10	596089	2	858	596947
TRSEscan	107	1	60.001	1	1610905615	5/7/2010	15:24:43	4	BlockProc	SessionList	2	1	5	12	NULL	NULL	NULL	NULL	12	5	78	Scenes	NULL	NULL	NULL	Both	1	2390	0	605979	10	603689	0	NULL	NULL	scene/s_238.bmp	NULL	NULL	NULL	NULL	NULL	NULL	Novel	SFFSFSSSFSSFSSFFFSFF	NULL	NULL	NULL	TrialProc	Relevant	BlockList	1	1	0	603579	10	603089	1	1010	604099
TRSEscan	107	1	60.001	1	1610905615	5/7/2010	15:24:43	4	BlockProc	SessionList	2	1	5	13	NULL	NULL	NULL	NULL	13	5	79	Faces	NULL	NULL	NULL	Both	2	4390	0	610979	10	606689	2	NULL	NULL	face/m_100.bmp	NULL	NULL	NULL	NULL	NULL	NULL	Repeat	SFFSFSSSFSSFSSFFFSFF	NULL	NULL	NULL	TrialProc	Relevant	BlockList	1	2	0	606579	10	606089	2	756	606845
TRSEscan	107	1	60.001	1	1610905615	5/7/2010	15:24:43	4	BlockProc	SessionList	2	1	5	14	NULL	NULL	NULL	NULL	14	5	80	Scenes	NULL	NULL	NULL	Both	2	2390	0	613979	10	611689	1	NULL	NULL	scene/s_238.bmp	NULL	NULL	NULL	NULL	NULL	NULL	Repeat	SFFSFSSSFSSFSSFFFSFF	NULL	NULL	NULL	TrialProc	Relevant	BlockList	1	2	0	611579	10	611089	2	682	611771
TRSEscan	107	1	60.001	1	1610905615	5/7/2010	15:24:43	4	BlockProc	SessionList	2	1	5	15	NULL	NULL	NULL	NULL	15	5	81	Scenes	NULL	NULL	NULL	Both	1	6390	0	620979	10	614689	0	NULL	NULL	scene/s_184.bmp	NULL	NULL	NULL	NULL	NULL	NULL	Novel	SFFSFSSSFSSFSSFFFSFF	NULL	NULL	NULL	TrialProc	Relevant	BlockList	1	1	0	614579	10	614089	1	658	614747
TRSEscan	107	1	60.001	1	1610905615	5/7/2010	15:24:43	4	BlockProc	SessionList	2	1	5	16	NULL	NULL	NULL	NULL	16	5	82	Faces	NULL	NULL	NULL	Both	2	6390	0	627978	10	621688	2	NULL	NULL	face/m_100.bmp	NULL	NULL	NULL	NULL	NULL	NULL	Repeat	SFFSFSSSFSSFSSFFFSFF	NULL	NULL	NULL	TrialProc	Relevant	BlockList	1	2	0	621578	9	621088	2	731	621819
TRSEscan	107	1	60.001	1	1610905615	5/7/2010	15:24:43	4	BlockProc	SessionList	2	1	5	17	NULL	NULL	NULL	NULL	17	5	83	Faces	NULL	NULL	NULL	Both	1	2390	0	630978	10	628688	0	NULL	NULL	face/m_058.bmp	NULL	NULL	NULL	NULL	NULL	NULL	Novel	SFFSFSSSFSSFSSFFFSFF	NULL	NULL	NULL	TrialProc	Relevant	BlockList	1	1	0	628578	10	628088	1	786	628874
TRSEscan	107	1	60.001	1	1610905615	5/7/2010	15:24:43	4	BlockProc	SessionList	2	1	5	18	NULL	NULL	NULL	NULL	18	5	84	Faces	NULL	NULL	NULL	Both	2	4390	0	635978	10	631688	0	NULL	NULL	face/m_058.bmp	NULL	NULL	NULL	NULL	NULL	NULL	Repeat	SFFSFSSSFSSFSSFFFSFF	NULL	NULL	NULL	TrialProc	Relevant	BlockList	1	2	0	631578	10	631088	2	738	631826
TRSEscan	107	1	60.001	1	1610905615	5/7/2010	15:24:43	4	BlockProc	SessionList	2	1	5	19	NULL	NULL	NULL	NULL	19	5	85	Scenes	NULL	NULL	NULL	Both	1	2390	0	638978	10	636688	3	NULL	NULL	scene/s_059.bmp	NULL	NULL	NULL	NULL	NULL	NULL	Novel	SFFSFSSSFSSFSSFFFSFF	NULL	NULL	NULL	TrialProc	Relevant	BlockList	1	1	0	636578	10	636088	1	848	636936
TRSEscan	107	1	60.001	1	1610905615	5/7/2010	15:24:43	4	BlockProc	SessionList	2	1	5	20	NULL	NULL	NULL	NULL	20	5	86	Faces	NULL	NULL	NULL	Both	1	6390	0	645978	10	639688	1	NULL	NULL	face/m_089.bmp	NULL	NULL	NULL	NULL	NULL	NULL	Novel	SFFSFSSSFSSFSSFFFSFF	NULL	NULL	NULL	TrialProc	Relevant	BlockList	1	1	0	639578	10	639088	1	986	640074
TRSEscan	107	1	60.001	1	1610905615	5/7/2010	15:24:43	4	BlockProc	SessionList	2	1	5	21	NULL	NULL	NULL	NULL	21	5	87	Faces	NULL	NULL	NULL	Both	1	4390	0	650978	10	646688	0	NULL	NULL	face/m_144.bmp	NULL	NULL	NULL	NULL	NULL	NULL	Novel	SFFSFSSSFSSFSSFFFSFF	NULL	NULL	NULL	TrialProc	Relevant	BlockList	1	1	0	646578	10	646088	1	906	646994
TRSEscan	107	1	60.001	1	1610905615	5/7/2010	15:24:43	4	BlockProc	SessionList	2	1	5	22	NULL	NULL	NULL	NULL	22	5	88		NULL	NULL	NULL	Both			NULL	NULL	NULL	NULL		665978	664088		NULL	NULL	NULL	NULL	NULL	NULL			NULL	NULL	NULL	FeedbackProc		BlockList	NULL	NULL	NULL	NULL	NULL	NULL	NULL	NULL	NULL
TRSEscan	107	2	60.001	1	-826119345	5/7/2010	15:36:18	1	BlockProc	SessionList	2	2	1	1	-999999	49949	4	46285	1	2	1		1	2	790	Scenes			NULL	NULL	NULL	NULL		NULL	NULL		65805	1	51752	0	66808	65818			0	68708	66818	InstrProc		BlockList	NULL	NULL	NULL	NULL	NULL	NULL	NULL	NULL	NULL
TRSEscan	107	2	60.001	1	-826119345	5/7/2010	15:36:18	1	BlockProc	SessionList	2	2	1	2	NULL	NULL	NULL	NULL	2	2	2	Faces	NULL	NULL	NULL	Scenes	1	2390	0	71708	10	69418	0	NULL	NULL	face/m_098.bmp	NULL	NULL	NULL	NULL	NULL	NULL	Novel	FFSFFFSSFSSFSSSFSFFS	NULL	NULL	NULL	TrialProc	Irrelevant	BlockList	1	1	0	69308	10	68818	1	611	69429
TRSEscan	107	2	60.001	1	-826119345	5/7/2010	15:36:18	1	BlockProc	SessionList	2	2	1	3	NULL	NULL	NULL	NULL	3	2	3	Faces	NULL	NULL	NULL	Scenes	1	4390	0	76707	10	72417	0	NULL	NULL	face/f_034.bmp	NULL	NULL	NULL	NULL	NULL	NULL	Novel	FFSFFFSSFSSFSSSFSFFS	NULL	NULL	NULL	TrialProc	Irrelevant	BlockList	1	1	0	72307	9	71817	1	508	72325
TRSEscan	107	2	60.001	1	-826119345	5/7/2010	15:36:18	1	BlockProc	SessionList	2	2	1	4	NULL	NULL	NULL	NULL	4	2	4	Scenes	NULL	NULL	NULL	Scenes	1	6390	0	83707	10	77417	2	NULL	NULL	scene/s_123.bmp	NULL	NULL	NULL	NULL	NULL	NULL	Novel	FFSFFFSSFSSFSSSFSFFS	NULL	NULL	NULL	TrialProc	Relevant	BlockList	1	1	0	77307	10	76817	1	523	77340
TRSEscan	107	2	60.001	1	-826119345	5/7/2010	15:36:18	1	BlockProc	SessionList	2	2	1	5	NULL	NULL	NULL	NULL	5	2	5	Faces	NULL	NULL	NULL	Scenes	1	4390	0	88707	10	84417	1	NULL	NULL	face/f_034.bmp	NULL	NULL	NULL	NULL	NULL	NULL	Repeat	FFSFFFSSFSSFSSSFSFFS	NULL	NULL	NULL	TrialProc	Irrelevant	BlockList	1	1	0	84307	10	83817	1	587	84404
TRSEscan	107	2	60.001	1	-826119345	5/7/2010	15:36:18	1	BlockProc	SessionList	2	2	1	6	NULL	NULL	NULL	NULL	6	2	6	Faces	NULL	NULL	NULL	Scenes	1	2390	0	91707	10	89417	0	NULL	NULL	face/f_034.bmp	NULL	NULL	NULL	NULL	NULL	NULL	Repeat	FFSFFFSSFSSFSSSFSFFS	NULL	NULL	NULL	TrialProc	Irrelevant	BlockList	1	1	0	89307	10	88817	1	483	89300
TRSEscan	107	2	60.001	1	-826119345	5/7/2010	15:36:18	1	BlockProc	SessionList	2	2	1	7	NULL	NULL	NULL	NULL	7	2	7	Faces	NULL	NULL	NULL	Scenes	1	6390	0	98707	10	92417	0	NULL	NULL	face/f_080.bmp	NULL	NULL	NULL	NULL	NULL	NULL	Novel	FFSFFFSSFSSFSSSFSFFS	NULL	NULL	NULL	TrialProc	Irrelevant	BlockList	1	1	0	92307	10	91817	1	475	92292
TRSEscan	107	2	60.001	1	-826119345	5/7/2010	15:36:18	1	BlockProc	SessionList	2	2	1	8	NULL	NULL	NULL	NULL	8	2	8	Scenes	NULL	NULL	NULL	Scenes	1	2390	0	101707	10	99417	3	NULL	NULL	scene/s_202.bmp	NULL	NULL	NULL	NULL	NULL	NULL	Novel	FFSFFFSSFSSFSSSFSFFS	NULL	NULL	NULL	TrialProc	Relevant	BlockList	1	1	0	99307	10	98817	1	691	99508
TRSEscan	107	2	60.001	1	-826119345	5/7/2010	15:36:18	1	BlockProc	SessionList	2	2	1	9	NULL	NULL	NULL	NULL	9	2	9	Scenes	NULL	NULL	NULL	Scenes	2	4390	0	106707	10	102417	0	NULL	NULL	scene/s_202.bmp	NULL	NULL	NULL	NULL	NULL	NULL	Repeat	FFSFFFSSFSSFSSSFSFFS	NULL	NULL	NULL	TrialProc	Relevant	BlockList	0	2	0	102307	10	101817	1	723	102540
TRSEscan	107	2	60.001	1	-826119345	5/7/2010	15:36:18	1	BlockProc	SessionList	2	2	1	10	NULL	NULL	NULL	NULL	10	2	10	Faces	NULL	NULL	NULL	Scenes	1	2390	0	109707	10	107417	2	NULL	NULL	face/f_080.bmp	NULL	NULL	NULL	NULL	NULL	NULL	Repeat	FFSFFFSSFSSFSSSFSFFS	NULL	NULL	NULL	TrialProc	Irrelevant	BlockList	1	1	0	107307	10	106817	1	515	107332
TRSEscan	107	2	60.001	1	-826119345	5/7/2010	15:36:18	1	BlockProc	SessionList	2	2	1	11	NULL	NULL	NULL	NULL	11	2	11	Scenes	NULL	NULL	NULL	Scenes	2	4390	0	114707	10	110417	1	NULL	NULL	scene/s_202.bmp	NULL	NULL	NULL	NULL	NULL	NULL	Repeat	FFSFFFSSFSSFSSSFSFFS	NULL	NULL	NULL	TrialProc	Relevant	BlockList	1	2	0	110307	10	109817	2	531	110348
TRSEscan	107	2	60.001	1	-826119345	5/7/2010	15:36:18	1	BlockProc	SessionList	2	2	1	12	NULL	NULL	NULL	NULL	12	2	12	Scenes	NULL	NULL	NULL	Scenes	1	6390	0	121707	10	115417	0	NULL	NULL	scene/s_394.bmp	NULL	NULL	NULL	NULL	NULL	NULL	Novel	FFSFFFSSFSSFSSSFSFFS	NULL	NULL	NULL	TrialProc	Relevant	BlockList	1	1	0	115307	10	114817	1	851	115668
TRSEscan	107	2	60.001	1	-826119345	5/7/2010	15:36:18	1	BlockProc	SessionList	2	2	1	13	NULL	NULL	NULL	NULL	13	2	13	Faces	NULL	NULL	NULL	Scenes	1	4390	0	126706	10	122416	2	NULL	NULL	face/f_086.bmp	NULL	NULL	NULL	NULL	NULL	NULL	Novel	FFSFFFSSFSSFSSSFSFFS	NULL	NULL	NULL	TrialProc	Irrelevant	BlockList	1	1	0	122306	9	121816	1	612	122428
TRSEscan	107	2	60.001	1	-826119345	5/7/2010	15:36:18	1	BlockProc	SessionList	2	2	1	14	NULL	NULL	NULL	NULL	14	2	14	Scenes	NULL	NULL	NULL	Scenes	2	2390	0	129706	10	127416	1	NULL	NULL	scene/s_394.bmp	NULL	NULL	NULL	NULL	NULL	NULL	Repeat	FFSFFFSSFSSFSSSFSFFS	NULL	NULL	NULL	TrialProc	Relevant	BlockList	1	2	0	127306	10	126816	2	571	127387
TRSEscan	107	2	60.001	1	-826119345	5/7/2010	15:36:18	1	BlockProc	SessionList	2	2	1	15	NULL	NULL	NULL	NULL	15	2	15	Scenes	NULL	NULL	NULL	Scenes	1	6390	0	136706	10	130416	0	NULL	NULL	scene/s_016.bmp	NULL	NULL	NULL	NULL	NULL	NULL	Novel	FFSFFFSSFSSFSSSFSFFS	NULL	NULL	NULL	TrialProc	Relevant	BlockList	1	1	0	130306	10	129816	1	787	130603
TRSEscan	107	2	60.001	1	-826119345	5/7/2010	15:36:18	1	BlockProc	SessionList	2	2	1	16	NULL	NULL	NULL	NULL	16	2	16	Scenes	NULL	NULL	NULL	Scenes	1	4390	0	141706	10	137416	0	NULL	NULL	scene/s_241.bmp	NULL	NULL	NULL	NULL	NULL	NULL	Novel	FFSFFFSSFSSFSSSFSFFS	NULL	NULL	NULL	TrialProc	Relevant	BlockList	1	1	0	137306	10	136816	1	763	137579
TRSEscan	107	2	60.001	1	-826119345	5/7/2010	15:36:18	1	BlockProc	SessionList	2	2	1	17	NULL	NULL	NULL	NULL	17	2	17	Faces	NULL	NULL	NULL	Scenes	1	6390	0	148706	10	142416	3	NULL	NULL	face/m_035.bmp	NULL	NULL	NULL	NULL	NULL	NULL	Novel	FFSFFFSSFSSFSSSFSFFS	NULL	NULL	NULL	TrialProc	Irrelevant	BlockList	1	1	0	142306	10	141816	1	411	142227
TRSEscan	107	2	60.001	1	-826119345	5/7/2010	15:36:18	1	BlockProc	SessionList	2	2	1	18	NULL	NULL	NULL	NULL	18	2	18	Scenes	NULL	NULL	NULL	Scenes	2	2390	0	151706	10	149416	1	NULL	NULL	scene/s_241.bmp	NULL	NULL	NULL	NULL	NULL	NULL	Repeat	FFSFFFSSFSSFSSSFSFFS	NULL	NULL	NULL	TrialProc	Relevant	BlockList	1	2	0	149306	10	148816	2	739	149555
TRSEscan	107	2	60.001	1	-826119345	5/7/2010	15:36:18	1	BlockProc	SessionList	2	2	1	19	NULL	NULL	NULL	NULL	19	2	19	Faces	NULL	NULL	NULL	Scenes	1	2390	0	154706	10	152416	1	NULL	NULL	face/m_035.bmp	NULL	NULL	NULL	NULL	NULL	NULL	Repeat	FFSFFFSSFSSFSSSFSFFS	NULL	NULL	NULL	TrialProc	Irrelevant	BlockList	1	1	0	152306	10	151816	1	739	152555
TRSEscan	107	2	60.001	1	-826119345	5/7/2010	15:36:18	1	BlockProc	SessionList	2	2	1	20	NULL	NULL	NULL	NULL	20	2	20	Faces	NULL	NULL	NULL	Scenes	1	6390	0	161706	10	155416	0	NULL	NULL	face/m_118.bmp	NULL	NULL	NULL	NULL	NULL	NULL	Novel	FFSFFFSSFSSFSSSFSFFS	NULL	NULL	NULL	TrialProc	Irrelevant	BlockList	1	1	0	155306	10	154816	1	795	155611
TRSEscan	107	2	60.001	1	-826119345	5/7/2010	15:36:18	1	BlockProc	SessionList	2	2	1	21	NULL	NULL	NULL	NULL	21	2	21	Scenes	NULL	NULL	NULL	Scenes	1	4390	0	166706	10	162416	2	NULL	NULL	scene/s_096.bmp	NULL	NULL	NULL	NULL	NULL	NULL	Novel	FFSFFFSSFSSFSSSFSFFS	NULL	NULL	NULL	TrialProc	Relevant	BlockList	1	1	0	162306	10	161816	1	1507	163323
TRSEscan	107	2	60.001	1	-826119345	5/7/2010	15:36:18	1	BlockProc	SessionList	2	2	1	22	NULL	NULL	NULL	NULL	22	2	22		NULL	NULL	NULL	Scenes			NULL	NULL	NULL	NULL		181705	179815		NULL	NULL	NULL	NULL	NULL	NULL			NULL	NULL	NULL	FeedbackProc		BlockList	NULL	NULL	NULL	NULL	NULL	NULL	NULL	NULL	NULL
TRSEscan	107	2	60.001	1	-826119345	5/7/2010	15:36:18	2	BlockProc	SessionList	2	2	2	1	-999999	184186	10	181815	1	3	23		1	2	1228	Categorize			NULL	NULL	NULL	NULL		NULL	NULL		203762	1	186433	0	204755	203765			0	206655	204765	InstrProc		BlockList	NULL	NULL	NULL	NULL	NULL	NULL	NULL	NULL	NULL
TRSEscan	107	2	60.001	1	-826119345	5/7/2010	15:36:18	2	BlockProc	SessionList	2	2	2	2	NULL	NULL	NULL	NULL	2	3	24	Faces	NULL	NULL	NULL	Categorize	1	2390	0	209655	10	207365	0	NULL	NULL	face/m_096.bmp	NULL	NULL	NULL	NULL	NULL	NULL	Novel	FFSFFFSSFSSFSSSFSFFS	NULL	NULL	NULL	TrialProc	Irrelevant	BlockList	1	1	0	207255	10	206765	1	413	207178
TRSEscan	107	2	60.001	1	-826119345	5/7/2010	15:36:18	2	BlockProc	SessionList	2	2	2	3	NULL	NULL	NULL	NULL	3	3	25	Faces	NULL	NULL	NULL	Categorize	1	4390	0	214655	10	210365	0	NULL	NULL	face/f_049.bmp	NULL	NULL	NULL	NULL	NULL	NULL	Novel	FFSFFFSSFSSFSSSFSFFS	NULL	NULL	NULL	TrialProc	Irrelevant	BlockList	1	1	0	210255	10	209765	1	429	210194
TRSEscan	107	2	60.001	1	-826119345	5/7/2010	15:36:18	2	BlockProc	SessionList	2	2	2	4	NULL	NULL	NULL	NULL	4	3	26	Scenes	NULL	NULL	NULL	Categorize	2	6390	0	221654	10	215364	2	NULL	NULL	scene/s_175.bmp	NULL	NULL	NULL	NULL	NULL	NULL	Novel	FFSFFFSSFSSFSSSFSFFS	NULL	NULL	NULL	TrialProc	Irrelevant	BlockList	1	2	0	215254	9	214764	2	438	215202
TRSEscan	107	2	60.001	1	-826119345	5/7/2010	15:36:18	2	BlockProc	SessionList	2	2	2	5	NULL	NULL	NULL	NULL	5	3	27	Faces	NULL	NULL	NULL	Categorize	1	4390	0	226654	10	222364	1	NULL	NULL	face/f_049.bmp	NULL	NULL	NULL	NULL	NULL	NULL	Repeat	FFSFFFSSFSSFSSSFSFFS	NULL	NULL	NULL	TrialProc	Irrelevant	BlockList	1	1	0	222254	10	221764	1	501	222265
TRSEscan	107	2	60.001	1	-826119345	5/7/2010	15:36:18	2	BlockProc	SessionList	2	2	2	6	NULL	NULL	NULL	NULL	6	3	28	Faces	NULL	NULL	NULL	Categorize	1	2390	0	229654	10	227364	0	NULL	NULL	face/f_049.bmp	NULL	NULL	NULL	NULL	NULL	NULL	Repeat	FFSFFFSSFSSFSSSFSFFS	NULL	NULL	NULL	TrialProc	Irrelevant	BlockList	1	1	0	227254	10	226764	1	485	227249
TRSEscan	107	2	60.001	1	-826119345	5/7/2010	15:36:18	2	BlockProc	SessionList	2	2	2	7	NULL	NULL	NULL	NULL	7	3	29	Faces	NULL	NULL	NULL	Categorize	1	6390	0	236654	10	230364	0	NULL	NULL	face/m_069.bmp	NULL	NULL	NULL	NULL	NULL	NULL	Novel	FFSFFFSSFSSFSSSFSFFS	NULL	NULL	NULL	TrialProc	Irrelevant	BlockList	1	1	0	230254	10	229764	1	381	230145
TRSEscan	107	2	60.001	1	-826119345	5/7/2010	15:36:18	2	BlockProc	SessionList	2	2	2	8	NULL	NULL	NULL	NULL	8	3	30	Scenes	NULL	NULL	NULL	Categorize	2	2390	0	239654	10	237364	3	NULL	NULL	scene/s_008.bmp	NULL	NULL	NULL	NULL	NULL	NULL	Novel	FFSFFFSSFSSFSSSFSFFS	NULL	NULL	NULL	TrialProc	Irrelevant	BlockList	1	2	0	237254	10	236764	2	565	237329
TRSEscan	107	2	60.001	1	-826119345	5/7/2010	15:36:18	2	BlockProc	SessionList	2	2	2	9	NULL	NULL	NULL	NULL	9	3	31	Scenes	NULL	NULL	NULL	Categorize	2	4390	0	244654	10	240364	0	NULL	NULL	scene/s_008.bmp	NULL	NULL	NULL	NULL	NULL	NULL	Repeat	FFSFFFSSFSSFSSSFSFFS	NULL	NULL	NULL	TrialProc	Irrelevant	BlockList	1	2	0	240254	10	239764	2	493	240257
TRSEscan	107	2	60.001	1	-826119345	5/7/2010	15:36:18	2	BlockProc	SessionList	2	2	2	10	NULL	NULL	NULL	NULL	10	3	32	Faces	NULL	NULL	NULL	Categorize	1	2390	0	247654	10	245364	2	NULL	NULL	face/m_069.bmp	NULL	NULL	NULL	NULL	NULL	NULL	Repeat	FFSFFFSSFSSFSSSFSFFS	NULL	NULL	NULL	TrialProc	Irrelevant	BlockList	1	1	0	245254	10	244764	1	453	245217
TRSEscan	107	2	60.001	1	-826119345	5/7/2010	15:36:18	2	BlockProc	SessionList	2	2	2	11	NULL	NULL	NULL	NULL	11	3	33	Scenes	NULL	NULL	NULL	Categorize	2	4390	0	252654	10	248364	1	NULL	NULL	scene/s_008.bmp	NULL	NULL	NULL	NULL	NULL	NULL	Repeat	FFSFFFSSFSSFSSSFSFFS	NULL	NULL	NULL	TrialProc	Irrelevant	BlockList	1	2	0	248254	10	247764	2	557	248321
TRSEscan	107	2	60.001	1	-826119345	5/7/2010	15:36:18	2	BlockProc	SessionList	2	2	2	12	NULL	NULL	NULL	NULL	12	3	34	Scenes	NULL	NULL	NULL	Categorize	2	6390	0	259654	10	253364	0	NULL	NULL	scene/s_423.bmp	NULL	NULL	NULL	NULL	NULL	NULL	Novel	FFSFFFSSFSSFSSSFSFFS	NULL	NULL	NULL	TrialProc	Irrelevant	BlockList	1	2	0	253254	10	252764	2	557	253321
TRSEscan	107	2	60.001	1	-826119345	5/7/2010	15:36:18	2	BlockProc	SessionList	2	2	2	13	NULL	NULL	NULL	NULL	13	3	35	Faces	NULL	NULL	NULL	Categorize	1	4390	0	264653	10	260363	2	NULL	NULL	face/f_016.bmp	NULL	NULL	NULL	NULL	NULL	NULL	Novel	FFSFFFSSFSSFSSSFSFFS	NULL	NULL	NULL	TrialProc	Irrelevant	BlockList	1	1	0	260253	9	259763	1	622	260385
TRSEscan	107	2	60.001	1	-826119345	5/7/2010	15:36:18	2	BlockProc	SessionList	2	2	2	14	NULL	NULL	NULL	NULL	14	3	36	Scenes	NULL	NULL	NULL	Categorize	2	2390	0	267653	10	265363	1	NULL	NULL	scene/s_423.bmp	NULL	NULL	NULL	NULL	NULL	NULL	Repeat	FFSFFFSSFSSFSSSFSFFS	NULL	NULL	NULL	TrialProc	Irrelevant	BlockList	1	2	0	265253	10	264763	2	526	265289
TRSEscan	107	2	60.001	1	-826119345	5/7/2010	15:36:18	2	BlockProc	SessionList	2	2	2	15	NULL	NULL	NULL	NULL	15	3	37	Scenes	NULL	NULL	NULL	Categorize	2	6390	0	274653	10	268363	0	NULL	NULL	scene/s_270.bmp	NULL	NULL	NULL	NULL	NULL	NULL	Novel	FFSFFFSSFSSFSSSFSFFS	NULL	NULL	NULL	TrialProc	Irrelevant	BlockList	1	2	0	268253	10	267763	2	509	268272
TRSEscan	107	2	60.001	1	-826119345	5/7/2010	15:36:18	2	BlockProc	SessionList	2	2	2	16	NULL	NULL	NULL	NULL	16	3	38	Scenes	NULL	NULL	NULL	Categorize	2	4390	0	279653	10	275363	0	NULL	NULL	scene/s_076.bmp	NULL	NULL	NULL	NULL	NULL	NULL	Novel	FFSFFFSSFSSFSSSFSFFS	NULL	NULL	NULL	TrialProc	Irrelevant	BlockList	1	2	0	275253	10	274763	2	517	275280
TRSEscan	107	2	60.001	1	-826119345	5/7/2010	15:36:18	2	BlockProc	SessionList	2	2	2	17	NULL	NULL	NULL	NULL	17	3	39	Faces	NULL	NULL	NULL	Categorize	1	6390	0	286653	10	280363	3	NULL	NULL	face/m_090.bmp	NULL	NULL	NULL	NULL	NULL	NULL	Novel	FFSFFFSSFSSFSSSFSFFS	NULL	NULL	NULL	TrialProc	Irrelevant	BlockList	1	1	0	280253	10	279763	1	453	280216
TRSEscan	107	2	60.001	1	-826119345	5/7/2010	15:36:18	2	BlockProc	SessionList	2	2	2	18	NULL	NULL	NULL	NULL	18	3	40	Scenes	NULL	NULL	NULL	Categorize	2	2390	0	289653	10	287363	1	NULL	NULL	scene/s_076.bmp	NULL	NULL	NULL	NULL	NULL	NULL	Repeat	FFSFFFSSFSSFSSSFSFFS	NULL	NULL	NULL	TrialProc	Irrelevant	BlockList	1	2	0	287253	10	286763	2	629	287392
TRSEscan	107	2	60.001	1	-826119345	5/7/2010	15:36:18	2	BlockProc	SessionList	2	2	2	19	NULL	NULL	NULL	NULL	19	3	41	Faces	NULL	NULL	NULL	Categorize	1	2390	0	292653	10	290363	1	NULL	NULL	face/m_090.bmp	NULL	NULL	NULL	NULL	NULL	NULL	Repeat	FFSFFFSSFSSFSSSFSFFS	NULL	NULL	NULL	TrialProc	Irrelevant	BlockList	1	1	0	290253	10	289763	1	509	290272
TRSEscan	107	2	60.001	1	-826119345	5/7/2010	15:36:18	2	BlockProc	SessionList	2	2	2	20	NULL	NULL	NULL	NULL	20	3	42	Faces	NULL	NULL	NULL	Categorize	1	6390	0	299653	10	293363	0	NULL	NULL	face/f_103.bmp	NULL	NULL	NULL	NULL	NULL	NULL	Novel	FFSFFFSSFSSFSSSFSFFS	NULL	NULL	NULL	TrialProc	Irrelevant	BlockList	1	1	0	293253	10	292763	1	597	293360
TRSEscan	107	2	60.001	1	-826119345	5/7/2010	15:36:18	2	BlockProc	SessionList	2	2	2	21	NULL	NULL	NULL	NULL	21	3	43	Scenes	NULL	NULL	NULL	Categorize	2	4390	0	304653	10	300363	2	NULL	NULL	scene/s_005.bmp	NULL	NULL	NULL	NULL	NULL	NULL	Novel	FFSFFFSSFSSFSSSFSFFS	NULL	NULL	NULL	TrialProc	Irrelevant	BlockList	1	2	0	300253	10	299763	2	389	300152
TRSEscan	107	2	60.001	1	-826119345	5/7/2010	15:36:18	2	BlockProc	SessionList	2	2	2	22	NULL	NULL	NULL	NULL	22	3	44		NULL	NULL	NULL	Categorize			NULL	NULL	NULL	NULL		319652	317762		NULL	NULL	NULL	NULL	NULL	NULL			NULL	NULL	NULL	FeedbackProc		BlockList	NULL	NULL	NULL	NULL	NULL	NULL	NULL	NULL	NULL
TRSEscan	107	2	60.001	1	-826119345	5/7/2010	15:36:18	3	BlockProc	SessionList	2	2	3	1	-999999	321847	10	319762	1	4	45		1	2	1169	Both			NULL	NULL	NULL	NULL		NULL	NULL		344079	1	324046	0	345069	344079			0	346968	345078	InstrProc		BlockList	NULL	NULL	NULL	NULL	NULL	NULL	NULL	NULL	NULL
TRSEscan	107	2	60.001	1	-826119345	5/7/2010	15:36:18	3	BlockProc	SessionList	2	2	3	2	NULL	NULL	NULL	NULL	2	4	46	Faces	NULL	NULL	NULL	Both	1	2390	0	349968	10	347678	0	NULL	NULL	face/m_060.bmp	NULL	NULL	NULL	NULL	NULL	NULL	Novel	FFSFFFSSFSSFSSSFSFFS	NULL	NULL	NULL	TrialProc	Relevant	BlockList	1	1	0	347568	10	347078	1	417	347495
TRSEscan	107	2	60.001	1	-826119345	5/7/2010	15:36:18	3	BlockProc	SessionList	2	2	3	3	NULL	NULL	NULL	NULL	3	4	47	Faces	NULL	NULL	NULL	Both	1	4390	0	354968	10	350678	0	NULL	NULL	face/f_085.bmp	NULL	NULL	NULL	NULL	NULL	NULL	Novel	FFSFFFSSFSSFSSSFSFFS	NULL	NULL	NULL	TrialProc	Relevant	BlockList	1	1	0	350568	10	350078	1	993	351071
TRSEscan	107	2	60.001	1	-826119345	5/7/2010	15:36:18	3	BlockProc	SessionList	2	2	3	4	NULL	NULL	NULL	NULL	4	4	48	Scenes	NULL	NULL	NULL	Both	1	6390	0	361968	10	355678	2	NULL	NULL	scene/s_027.bmp	NULL	NULL	NULL	NULL	NULL	NULL	Novel	FFSFFFSSFSSFSSSFSFFS	NULL	NULL	NULL	TrialProc	Relevant	BlockList	1	1	0	355568	10	355078	1	801	355879
TRSEscan	107	2	60.001	1	-826119345	5/7/2010	15:36:18	3	BlockProc	SessionList	2	2	3	5	NULL	NULL	NULL	NULL	5	4	49	Faces	NULL	NULL	NULL	Both	2	4390	0	366968	10	362678	1	NULL	NULL	face/f_085.bmp	NULL	NULL	NULL	NULL	NULL	NULL	Repeat	FFSFFFSSFSSFSSSFSFFS	NULL	NULL	NULL	TrialProc	Relevant	BlockList	1	2	0	362568	10	362078	2	472	362550
TRSEscan	107	2	60.001	1	-826119345	5/7/2010	15:36:18	3	BlockProc	SessionList	2	2	3	6	NULL	NULL	NULL	NULL	6	4	50	Faces	NULL	NULL	NULL	Both	2	2390	0	369968	10	367678	0	NULL	NULL	face/f_085.bmp	NULL	NULL	NULL	NULL	NULL	NULL	Repeat	FFSFFFSSFSSFSSSFSFFS	NULL	NULL	NULL	TrialProc	Relevant	BlockList	1	2	0	367568	10	367078	2	504	367582
TRSEscan	107	2	60.001	1	-826119345	5/7/2010	15:36:18	3	BlockProc	SessionList	2	2	3	7	NULL	NULL	NULL	NULL	7	4	51	Faces	NULL	NULL	NULL	Both	1	6390	0	376968	10	370678	0	NULL	NULL	face/f_038.bmp	NULL	NULL	NULL	NULL	NULL	NULL	Novel	FFSFFFSSFSSFSSSFSFFS	NULL	NULL	NULL	TrialProc	Relevant	BlockList	1	1	0	370568	10	370078	1	704	370782
TRSEscan	107	2	60.001	1	-826119345	5/7/2010	15:36:18	3	BlockProc	SessionList	2	2	3	8	NULL	NULL	NULL	NULL	8	4	52	Scenes	NULL	NULL	NULL	Both	1	2390	0	379968	10	377678	3	NULL	NULL	scene/s_156.bmp	NULL	NULL	NULL	NULL	NULL	NULL	Novel	FFSFFFSSFSSFSSSFSFFS	NULL	NULL	NULL	TrialProc	Relevant	BlockList	1	1	0	377568	10	377078	1	720	377798
TRSEscan	107	2	60.001	1	-826119345	5/7/2010	15:36:18	3	BlockProc	SessionList	2	2	3	9	NULL	NULL	NULL	NULL	9	4	53	Scenes	NULL	NULL	NULL	Both	2	4390	0	384968	10	380678	0	NULL	NULL	scene/s_156.bmp	NULL	NULL	NULL	NULL	NULL	NULL	Repeat	FFSFFFSSFSSFSSSFSFFS	NULL	NULL	NULL	TrialProc	Relevant	BlockList	1	2	0	380568	10	380078	2	768	380846
TRSEscan	107	2	60.001	1	-826119345	5/7/2010	15:36:18	3	BlockProc	SessionList	2	2	3	10	NULL	NULL	NULL	NULL	10	4	54	Faces	NULL	NULL	NULL	Both	2	2390	0	387967	9	385677	2	NULL	NULL	face/f_038.bmp	NULL	NULL	NULL	NULL	NULL	NULL	Repeat	FFSFFFSSFSSFSSSFSFFS	NULL	NULL	NULL	TrialProc	Relevant	BlockList	1	2	0	385568	10	385078	2	568	385646
TRSEscan	107	2	60.001	1	-826119345	5/7/2010	15:36:18	3	BlockProc	SessionList	2	2	3	11	NULL	NULL	NULL	NULL	11	4	55	Scenes	NULL	NULL	NULL	Both	2	4390	0	392967	10	388677	1	NULL	NULL	scene/s_156.bmp	NULL	NULL	NULL	NULL	NULL	NULL	Repeat	FFSFFFSSFSSFSSSFSFFS	NULL	NULL	NULL	TrialProc	Relevant	BlockList	1	2	0	388567	10	388077	2	609	388686
TRSEscan	107	2	60.001	1	-826119345	5/7/2010	15:36:18	3	BlockProc	SessionList	2	2	3	12	NULL	NULL	NULL	NULL	12	4	56	Scenes	NULL	NULL	NULL	Both	1	6390	0	399967	10	393677	0	NULL	NULL	scene/s_101.bmp	NULL	NULL	NULL	NULL	NULL	NULL	Novel	FFSFFFSSFSSFSSSFSFFS	NULL	NULL	NULL	TrialProc	Relevant	BlockList	1	1	0	393567	10	393077	1	857	393934
TRSEscan	107	2	60.001	1	-826119345	5/7/2010	15:36:18	3	BlockProc	SessionList	2	2	3	13	NULL	NULL	NULL	NULL	13	4	57	Faces	NULL	NULL	NULL	Both	1	4390	0	404967	10	400677	2	NULL	NULL	face/f_052.bmp	NULL	NULL	NULL	NULL	NULL	NULL	Novel	FFSFFFSSFSSFSSSFSFFS	NULL	NULL	NULL	TrialProc	Relevant	BlockList	1	1	0	400567	10	400077	1	785	400862
TRSEscan	107	2	60.001	1	-826119345	5/7/2010	15:36:18	3	BlockProc	SessionList	2	2	3	14	NULL	NULL	NULL	NULL	14	4	58	Scenes	NULL	NULL	NULL	Both	2	2390	0	407967	10	405677	1	NULL	NULL	scene/s_101.bmp	NULL	NULL	NULL	NULL	NULL	NULL	Repeat	FFSFFFSSFSSFSSSFSFFS	NULL	NULL	NULL	TrialProc	Relevant	BlockList	1	2	0	405567	10	405077	2	665	405742
TRSEscan	107	2	60.001	1	-826119345	5/7/2010	15:36:18	3	BlockProc	SessionList	2	2	3	15	NULL	NULL	NULL	NULL	15	4	59	Scenes	NULL	NULL	NULL	Both	1	6390	0	414967	10	408677	0	NULL	NULL	scene/s_372.bmp	NULL	NULL	NULL	NULL	NULL	NULL	Novel	FFSFFFSSFSSFSSSFSFFS	NULL	NULL	NULL	TrialProc	Relevant	BlockList	1	1	0	408567	10	408077	1	777	408854
TRSEscan	107	2	60.001	1	-826119345	5/7/2010	15:36:18	3	BlockProc	SessionList	2	2	3	16	NULL	NULL	NULL	NULL	16	4	60	Scenes	NULL	NULL	NULL	Both	1	4390	0	419967	10	415677	0	NULL	NULL	scene/s_400.bmp	NULL	NULL	NULL	NULL	NULL	NULL	Novel	FFSFFFSSFSSFSSSFSFFS	NULL	NULL	NULL	TrialProc	Relevant	BlockList	1	1	0	415567	10	415077	1	848	415925
TRSEscan	107	2	60.001	1	-826119345	5/7/2010	15:36:18	3	BlockProc	SessionList	2	2	3	17	NULL	NULL	NULL	NULL	17	4	61	Faces	NULL	NULL	NULL	Both	1	6390	0	426967	10	420677	3	NULL	NULL	face/m_143.bmp	NULL	NULL	NULL	NULL	NULL	NULL	Novel	FFSFFFSSFSSFSSSFSFFS	NULL	NULL	NULL	TrialProc	Relevant	BlockList	1	1	0	420567	10	420077	1	888	420965
TRSEscan	107	2	60.001	1	-826119345	5/7/2010	15:36:18	3	BlockProc	SessionList	2	2	3	18	NULL	NULL	NULL	NULL	18	4	62	Scenes	NULL	NULL	NULL	Both	2	2390	0	429967	10	427677	1	NULL	NULL	scene/s_400.bmp	NULL	NULL	NULL	NULL	NULL	NULL	Repeat	FFSFFFSSFSSFSSSFSFFS	NULL	NULL	NULL	TrialProc	Relevant	BlockList	1	2	0	427567	10	427077	2	616	427693
TRSEscan	107	2	60.001	1	-826119345	5/7/2010	15:36:18	3	BlockProc	SessionList	2	2	3	19	NULL	NULL	NULL	NULL	19	4	63	Faces	NULL	NULL	NULL	Both	2	2390	0	432967	10	430677	1	NULL	NULL	face/m_143.bmp	NULL	NULL	NULL	NULL	NULL	NULL	Repeat	FFSFFFSSFSSFSSSFSFFS	NULL	NULL	NULL	TrialProc	Relevant	BlockList	1	2	0	430567	10	430077	2	616	430693
TRSEscan	107	2	60.001	1	-826119345	5/7/2010	15:36:18	3	BlockProc	SessionList	2	2	3	20	NULL	NULL	NULL	NULL	20	4	64	Faces	NULL	NULL	NULL	Both	1	6390	0	439966	10	433676	0	NULL	NULL	face/m_055.bmp	NULL	NULL	NULL	NULL	NULL	NULL	Novel	FFSFFFSSFSSFSSSFSFFS	NULL	NULL	NULL	TrialProc	Relevant	BlockList	1	1	0	433566	9	433076	1	825	433901
TRSEscan	107	2	60.001	1	-826119345	5/7/2010	15:36:18	3	BlockProc	SessionList	2	2	3	21	NULL	NULL	NULL	NULL	21	4	65	Scenes	NULL	NULL	NULL	Both	1	4390	0	444966	10	440676	2	NULL	NULL	scene/s_083.bmp	NULL	NULL	NULL	NULL	NULL	NULL	Novel	FFSFFFSSFSSFSSSFSFFS	NULL	NULL	NULL	TrialProc	Relevant	BlockList	1	1	0	440566	10	440076	1	697	440773
TRSEscan	107	2	60.001	1	-826119345	5/7/2010	15:36:18	3	BlockProc	SessionList	2	2	3	22	NULL	NULL	NULL	NULL	22	4	66		NULL	NULL	NULL	Both			NULL	NULL	NULL	NULL		459966	458076		NULL	NULL	NULL	NULL	NULL	NULL			NULL	NULL	NULL	FeedbackProc		BlockList	NULL	NULL	NULL	NULL	NULL	NULL	NULL	NULL	NULL
TRSEscan	107	2	60.001	1	-826119345	5/7/2010	15:36:18	4	BlockProc	SessionList	2	2	4	1	-999999	461540	10	460076	1	5	67		1	2	1365	Faces			NULL	NULL	NULL	NULL		NULL	NULL		482220	1	463910	0	483215	482225			0	485115	483225	InstrProc		BlockList	NULL	NULL	NULL	NULL	NULL	NULL	NULL	NULL	NULL
TRSEscan	107	2	60.001	1	-826119345	5/7/2010	15:36:18	4	BlockProc	SessionList	2	2	4	2	NULL	NULL	NULL	NULL	2	5	68	Faces	NULL	NULL	NULL	Faces	1	2390	0	488115	10	485825	0	NULL	NULL	face/m_011.bmp	NULL	NULL	NULL	NULL	NULL	NULL	Novel	FFSFFFSSFSSFSSSFSFFS	NULL	NULL	NULL	TrialProc	Relevant	BlockList	1	1	0	485715	10	485225	1	443	485668
TRSEscan	107	2	60.001	1	-826119345	5/7/2010	15:36:18	4	BlockProc	SessionList	2	2	4	3	NULL	NULL	NULL	NULL	3	5	69	Faces	NULL	NULL	NULL	Faces	1	4390	0	493115	10	488825	0	NULL	NULL	face/f_064.bmp	NULL	NULL	NULL	NULL	NULL	NULL	Novel	FFSFFFSSFSSFSSSFSFFS	NULL	NULL	NULL	TrialProc	Relevant	BlockList	1	1	0	488715	10	488225	1	627	488852
TRSEscan	107	2	60.001	1	-826119345	5/7/2010	15:36:18	4	BlockProc	SessionList	2	2	4	4	NULL	NULL	NULL	NULL	4	5	70	Scenes	NULL	NULL	NULL	Faces	1	6390	0	500115	10	493825	2	NULL	NULL	scene/s_041.bmp	NULL	NULL	NULL	NULL	NULL	NULL	Novel	FFSFFFSSFSSFSSSFSFFS	NULL	NULL	NULL	TrialProc	Irrelevant	BlockList	1	1	0	493715	10	493225	1	531	493756
TRSEscan	107	2	60.001	1	-826119345	5/7/2010	15:36:18	4	BlockProc	SessionList	2	2	4	5	NULL	NULL	NULL	NULL	5	5	71	Faces	NULL	NULL	NULL	Faces	2	4390	0	505115	10	500825	1	NULL	NULL	face/f_064.bmp	NULL	NULL	NULL	NULL	NULL	NULL	Repeat	FFSFFFSSFSSFSSSFSFFS	NULL	NULL	NULL	TrialProc	Relevant	BlockList	1	2	0	500715	10	500225	2	795	501020
TRSEscan	107	2	60.001	1	-826119345	5/7/2010	15:36:18	4	BlockProc	SessionList	2	2	4	6	NULL	NULL	NULL	NULL	6	5	72	Faces	NULL	NULL	NULL	Faces	2	2390	0	508115	10	505825	0	NULL	NULL	face/f_064.bmp	NULL	NULL	NULL	NULL	NULL	NULL	Repeat	FFSFFFSSFSSFSSSFSFFS	NULL	NULL	NULL	TrialProc	Relevant	BlockList	1	2	0	505715	10	505225	2	530	505755
TRSEscan	107	2	60.001	1	-826119345	5/7/2010	15:36:18	4	BlockProc	SessionList	2	2	4	7	NULL	NULL	NULL	NULL	7	5	73	Faces	NULL	NULL	NULL	Faces	1	6390	0	515115	10	508825	0	NULL	NULL	face/f_017.bmp	NULL	NULL	NULL	NULL	NULL	NULL	Novel	FFSFFFSSFSSFSSSFSFFS	NULL	NULL	NULL	TrialProc	Relevant	BlockList	1	1	0	508715	10	508225	1	570	508795
TRSEscan	107	2	60.001	1	-826119345	5/7/2010	15:36:18	4	BlockProc	SessionList	2	2	4	8	NULL	NULL	NULL	NULL	8	5	74	Scenes	NULL	NULL	NULL	Faces	1	2390	0	518115	10	515825	3	NULL	NULL	scene/s_086.bmp	NULL	NULL	NULL	NULL	NULL	NULL	Novel	FFSFFFSSFSSFSSSFSFFS	NULL	NULL	NULL	TrialProc	Irrelevant	BlockList	1	1	0	515715	10	515225	1	882	516107
TRSEscan	107	2	60.001	1	-826119345	5/7/2010	15:36:18	4	BlockProc	SessionList	2	2	4	9	NULL	NULL	NULL	NULL	9	5	75	Scenes	NULL	NULL	NULL	Faces	1	4390	0	523115	10	518825	0	NULL	NULL	scene/s_086.bmp	NULL	NULL	NULL	NULL	NULL	NULL	Repeat	FFSFFFSSFSSFSSSFSFFS	NULL	NULL	NULL	TrialProc	Irrelevant	BlockList	1	1	0	518715	10	518225	1	442	518667
TRSEscan	107	2	60.001	1	-826119345	5/7/2010	15:36:18	4	BlockProc	SessionList	2	2	4	10	NULL	NULL	NULL	NULL	10	5	76	Faces	NULL	NULL	NULL	Faces	2	2390	0	526115	10	523825	2	NULL	NULL	face/f_017.bmp	NULL	NULL	NULL	NULL	NULL	NULL	Repeat	FFSFFFSSFSSFSSSFSFFS	NULL	NULL	NULL	TrialProc	Relevant	BlockList	1	2	0	523715	10	523225	2	618	523843
TRSEscan	107	2	60.001	1	-826119345	5/7/2010	15:36:18	4	BlockProc	SessionList	2	2	4	11	NULL	NULL	NULL	NULL	11	5	77	Scenes	NULL	NULL	NULL	Faces	1	4390	0	531115	10	526825	1	NULL	NULL	scene/s_086.bmp	NULL	NULL	NULL	NULL	NULL	NULL	Repeat	FFSFFFSSFSSFSSSFSFFS	NULL	NULL	NULL	TrialProc	Irrelevant	BlockList	1	1	0	526715	10	526225	1	450	526675
TRSEscan	107	2	60.001	1	-826119345	5/7/2010	15:36:18	4	BlockProc	SessionList	2	2	4	12	NULL	NULL	NULL	NULL	12	5	78	Scenes	NULL	NULL	NULL	Faces	1	6390	0	538114	10	531824	0	NULL	NULL	scene/s_171.bmp	NULL	NULL	NULL	NULL	NULL	NULL	Novel	FFSFFFSSFSSFSSSFSFFS	NULL	NULL	NULL	TrialProc	Irrelevant	BlockList	1	1	0	531714	9	531224	1	531	531755
TRSEscan	107	2	60.001	1	-826119345	5/7/2010	15:36:18	4	BlockProc	SessionList	2	2	4	13	NULL	NULL	NULL	NULL	13	5	79	Faces	NULL	NULL	NULL	Faces	1	4390	0	543114	10	538824	2	NULL	NULL	face/f_031.bmp	NULL	NULL	NULL	NULL	NULL	NULL	Novel	FFSFFFSSFSSFSSSFSFFS	NULL	NULL	NULL	TrialProc	Relevant	BlockList	1	1	0	538714	10	538224	1	643	538867
TRSEscan	107	2	60.001	1	-826119345	5/7/2010	15:36:18	4	BlockProc	SessionList	2	2	4	14	NULL	NULL	NULL	NULL	14	5	80	Scenes	NULL	NULL	NULL	Faces	1	2390	0	546114	10	543824	1	NULL	NULL	scene/s_171.bmp	NULL	NULL	NULL	NULL	NULL	NULL	Repeat	FFSFFFSSFSSFSSSFSFFS	NULL	NULL	NULL	TrialProc	Irrelevant	BlockList	1	1	0	543714	10	543224	1	499	543723
TRSEscan	107	2	60.001	1	-826119345	5/7/2010	15:36:18	4	BlockProc	SessionList	2	2	4	15	NULL	NULL	NULL	NULL	15	5	81	Scenes	NULL	NULL	NULL	Faces	1	6390	0	553114	10	546824	0	NULL	NULL	scene/s_231.bmp	NULL	NULL	NULL	NULL	NULL	NULL	Novel	FFSFFFSSFSSFSSSFSFFS	NULL	NULL	NULL	TrialProc	Irrelevant	BlockList	1	1	0	546714	10	546224	1	515	546739
TRSEscan	107	2	60.001	1	-826119345	5/7/2010	15:36:18	4	BlockProc	SessionList	2	2	4	16	NULL	NULL	NULL	NULL	16	5	82	Scenes	NULL	NULL	NULL	Faces	1	4390	0	558114	10	553824	0	NULL	NULL	scene/s_335.bmp	NULL	NULL	NULL	NULL	NULL	NULL	Novel	FFSFFFSSFSSFSSSFSFFS	NULL	NULL	NULL	TrialProc	Irrelevant	BlockList	1	1	0	553714	10	553224	1	530	553754
TRSEscan	107	2	60.001	1	-826119345	5/7/2010	15:36:18	4	BlockProc	SessionList	2	2	4	17	NULL	NULL	NULL	NULL	17	5	83	Faces	NULL	NULL	NULL	Faces	1	6390	0	565114	10	558824	3	NULL	NULL	face/m_007.bmp	NULL	NULL	NULL	NULL	NULL	NULL	Novel	FFSFFFSSFSSFSSSFSFFS	NULL	NULL	NULL	TrialProc	Relevant	BlockList	1	1	0	558714	10	558224	1	642	558866
TRSEscan	107	2	60.001	1	-826119345	5/7/2010	15:36:18	4	BlockProc	SessionList	2	2	4	18	NULL	NULL	NULL	NULL	18	5	84	Scenes	NULL	NULL	NULL	Faces	1	2390	0	568114	10	565824	1	NULL	NULL	scene/s_335.bmp	NULL	NULL	NULL	NULL	NULL	NULL	Repeat	FFSFFFSSFSSFSSSFSFFS	NULL	NULL	NULL	TrialProc	Irrelevant	BlockList	1	1	0	565714	10	565224	1	362	565586
TRSEscan	107	2	60.001	1	-826119345	5/7/2010	15:36:18	4	BlockProc	SessionList	2	2	4	19	NULL	NULL	NULL	NULL	19	5	85	Faces	NULL	NULL	NULL	Faces	2	2390	0	571114	10	568824	1	NULL	NULL	face/m_007.bmp	NULL	NULL	NULL	NULL	NULL	NULL	Repeat	FFSFFFSSFSSFSSSFSFFS	NULL	NULL	NULL	TrialProc	Relevant	BlockList	0	2	0	568714	10	568224	1	426	568650
TRSEscan	107	2	60.001	1	-826119345	5/7/2010	15:36:18	4	BlockProc	SessionList	2	2	4	20	NULL	NULL	NULL	NULL	20	5	86	Faces	NULL	NULL	NULL	Faces	1	6390	0	578114	10	571824	0	NULL	NULL	face/m_006.bmp	NULL	NULL	NULL	NULL	NULL	NULL	Novel	FFSFFFSSFSSFSSSFSFFS	NULL	NULL	NULL	TrialProc	Relevant	BlockList	1	1	0	571714	10	571224	1	514	571738
TRSEscan	107	2	60.001	1	-826119345	5/7/2010	15:36:18	4	BlockProc	SessionList	2	2	4	21	NULL	NULL	NULL	NULL	21	5	87	Scenes	NULL	NULL	NULL	Faces	1	4390	0	583113	10	578823	2	NULL	NULL	scene/s_327.bmp	NULL	NULL	NULL	NULL	NULL	NULL	Novel	FFSFFFSSFSSFSSSFSFFS	NULL	NULL	NULL	TrialProc	Irrelevant	BlockList	1	1	0	578713	9	578223	1	651	578874
TRSEscan	107	2	60.001	1	-826119345	5/7/2010	15:36:18	4	BlockProc	SessionList	2	2	4	22	NULL	NULL	NULL	NULL	22	5	88		NULL	NULL	NULL	Faces			NULL	NULL	NULL	NULL		598113	596223		NULL	NULL	NULL	NULL	NULL	NULL			NULL	NULL	NULL	FeedbackProc		BlockList	NULL	NULL	NULL	NULL	NULL	NULL	NULL	NULL	NULL
TRSEscan	107	3	60.001	1	-508440033	5/7/2010	15:46:51	1	BlockProc	SessionList	2	2	1	1	-999999	46697	3	43728	1	2	1		1	2	946	Categorize			NULL	NULL	NULL	NULL		NULL	NULL		64904	1	48662	0	65901	64911			0	67801	65911	InstrProc		BlockList	NULL	NULL	NULL	NULL	NULL	NULL	NULL	NULL	NULL
TRSEscan	107	3	60.001	1	-508440033	5/7/2010	15:46:51	1	BlockProc	SessionList	2	2	1	2	NULL	NULL	NULL	NULL	2	2	2	Faces	NULL	NULL	NULL	Categorize	1	4390	0	72801	10	68511	0	NULL	NULL	face/m_110.bmp	NULL	NULL	NULL	NULL	NULL	NULL	Novel	FFSFFFSFFSSFSFSSSFSS	NULL	NULL	NULL	TrialProc	Irrelevant	BlockList	1	1	0	68401	10	67911	1	497	68408
TRSEscan	107	3	60.001	1	-508440033	5/7/2010	15:46:51	1	BlockProc	SessionList	2	2	1	3	NULL	NULL	NULL	NULL	3	2	3	Faces	NULL	NULL	NULL	Categorize	1	2390	0	75801	10	73511	0	NULL	NULL	face/f_082.bmp	NULL	NULL	NULL	NULL	NULL	NULL	Novel	FFSFFFSFFSSFSFSSSFSS	NULL	NULL	NULL	TrialProc	Irrelevant	BlockList	1	1	0	73401	10	72911	1	457	73368
TRSEscan	107	3	60.001	1	-508440033	5/7/2010	15:46:51	1	BlockProc	SessionList	2	2	1	4	NULL	NULL	NULL	NULL	4	2	4	Scenes	NULL	NULL	NULL	Categorize	2	2390	0	78801	10	76511	2	NULL	NULL	scene/s_339.bmp	NULL	NULL	NULL	NULL	NULL	NULL	Novel	FFSFFFSFFSSFSFSSSFSS	NULL	NULL	NULL	TrialProc	Irrelevant	BlockList	1	2	0	76401	10	75911	2	481	76392
TRSEscan	107	3	60.001	1	-508440033	5/7/2010	15:46:51	1	BlockProc	SessionList	2	2	1	5	NULL	NULL	NULL	NULL	5	2	5	Faces	NULL	NULL	NULL	Categorize	1	6390	0	85800	10	79510	1	NULL	NULL	face/f_014.bmp	NULL	NULL	NULL	NULL	NULL	NULL	Novel	FFSFFFSFFSSFSFSSSFSS	NULL	NULL	NULL	TrialProc	Irrelevant	BlockList	1	1	0	79400	9	78910	1	426	79336
TRSEscan	107	3	60.001	1	-508440033	5/7/2010	15:46:51	1	BlockProc	SessionList	2	2	1	6	NULL	NULL	NULL	NULL	6	2	6	Faces	NULL	NULL	NULL	Categorize	1	4390	0	90800	10	86510	0	NULL	NULL	face/f_014.bmp	NULL	NULL	NULL	NULL	NULL	NULL	Repeat	FFSFFFSFFSSFSFSSSFSS	NULL	NULL	NULL	TrialProc	Irrelevant	BlockList	1	1	0	86400	10	85910	1	498	86408
TRSEscan	107	3	60.001	1	-508440033	5/7/2010	15:46:51	1	BlockProc	SessionList	2	2	1	7	NULL	NULL	NULL	NULL	7	2	7	Faces	NULL	NULL	NULL	Categorize	1	6390	0	97800	10	91510	0	NULL	NULL	face/m_036.bmp	NULL	NULL	NULL	NULL	NULL	NULL	Novel	FFSFFFSFFSSFSFSSSFSS	NULL	NULL	NULL	TrialProc	Irrelevant	BlockList	1	1	0	91400	10	90910	1	482	91392
TRSEscan	107	3	60.001	1	-508440033	5/7/2010	15:46:51	1	BlockProc	SessionList	2	2	1	8	NULL	NULL	NULL	NULL	8	2	8	Scenes	NULL	NULL	NULL	Categorize	2	2390	0	100800	10	98510	3	NULL	NULL	scene/s_032.bmp	NULL	NULL	NULL	NULL	NULL	NULL	Novel	FFSFFFSFFSSFSFSSSFSS	NULL	NULL	NULL	TrialProc	Irrelevant	BlockList	1	2	0	98400	10	97910	2	473	98383
TRSEscan	107	3	60.001	1	-508440033	5/7/2010	15:46:51	1	BlockProc	SessionList	2	2	1	9	NULL	NULL	NULL	NULL	9	2	9	Faces	NULL	NULL	NULL	Categorize	1	4390	0	105800	10	101510	1	NULL	NULL	face/m_093.bmp	NULL	NULL	NULL	NULL	NULL	NULL	Novel	FFSFFFSFFSSFSFSSSFSS	NULL	NULL	NULL	TrialProc	Irrelevant	BlockList	1	1	0	101400	10	100910	1	497	101407
TRSEscan	107	3	60.001	1	-508440033	5/7/2010	15:46:51	1	BlockProc	SessionList	2	2	1	10	NULL	NULL	NULL	NULL	10	2	10	Faces	NULL	NULL	NULL	Categorize	1	6390	0	112800	10	106510	0	NULL	NULL	face/m_093.bmp	NULL	NULL	NULL	NULL	NULL	NULL	Repeat	FFSFFFSFFSSFSFSSSFSS	NULL	NULL	NULL	TrialProc	Irrelevant	BlockList	1	1	0	106400	10	105910	1	377	106287
TRSEscan	107	3	60.001	1	-508440033	5/7/2010	15:46:51	1	BlockProc	SessionList	2	2	1	11	NULL	NULL	NULL	NULL	11	2	11	Scenes	NULL	NULL	NULL	Categorize	2	4390	0	117800	10	113510	2	NULL	NULL	scene/s_395.bmp	NULL	NULL	NULL	NULL	NULL	NULL	Novel	FFSFFFSFFSSFSFSSSFSS	NULL	NULL	NULL	TrialProc	Irrelevant	BlockList	1	2	0	113400	10	112910	2	681	113591
TRSEscan	107	3	60.001	1	-508440033	5/7/2010	15:46:51	1	BlockProc	SessionList	2	2	1	12	NULL	NULL	NULL	NULL	12	2	12	Scenes	NULL	NULL	NULL	Categorize	2	2390	0	120800	10	118510	0	NULL	NULL	scene/s_395.bmp	NULL	NULL	NULL	NULL	NULL	NULL	Repeat	FFSFFFSFFSSFSFSSSFSS	NULL	NULL	NULL	TrialProc	Irrelevant	BlockList	1	2	0	118400	10	117910	2	473	118383
TRSEscan	107	3	60.001	1	-508440033	5/7/2010	15:46:51	1	BlockProc	SessionList	2	2	1	13	NULL	NULL	NULL	NULL	13	2	13	Faces	NULL	NULL	NULL	Categorize	1	4390	0	125800	10	121510	2	NULL	NULL	face/m_093.bmp	NULL	NULL	NULL	NULL	NULL	NULL	Repeat	FFSFFFSFFSSFSFSSSFSS	NULL	NULL	NULL	TrialProc	Irrelevant	BlockList	1	1	0	121400	10	120910	1	409	121319
TRSEscan	107	3	60.001	1	-508440033	5/7/2010	15:46:51	1	BlockProc	SessionList	2	2	1	14	NULL	NULL	NULL	NULL	14	2	14	Scenes	NULL	NULL	NULL	Categorize	2	2390	0	128799	10	126509	1	NULL	NULL	scene/s_043.bmp	NULL	NULL	NULL	NULL	NULL	NULL	Novel	FFSFFFSFFSSFSFSSSFSS	NULL	NULL	NULL	TrialProc	Irrelevant	BlockList	1	2	0	126399	9	125909	2	506	126415
TRSEscan	107	3	60.001	1	-508440033	5/7/2010	15:46:51	1	BlockProc	SessionList	2	2	1	15	NULL	NULL	NULL	NULL	15	2	15	Faces	NULL	NULL	NULL	Categorize	1	6390	0	135799	10	129509	1	NULL	NULL	face/m_080.bmp	NULL	NULL	NULL	NULL	NULL	NULL	Novel	FFSFFFSFFSSFSFSSSFSS	NULL	NULL	NULL	TrialProc	Irrelevant	BlockList	1	1	0	129399	10	128909	1	666	129575
TRSEscan	107	3	60.001	1	-508440033	5/7/2010	15:46:51	1	BlockProc	SessionList	2	2	1	16	NULL	NULL	NULL	NULL	16	2	16	Scenes	NULL	NULL	NULL	Categorize	2	4390	0	140799	10	136509	1	NULL	NULL	scene/s_387.bmp	NULL	NULL	NULL	NULL	NULL	NULL	Novel	FFSFFFSFFSSFSFSSSFSS	NULL	NULL	NULL	TrialProc	Irrelevant	BlockList	1	2	0	136399	10	135909	2	394	136303
TRSEscan	107	3	60.001	1	-508440033	5/7/2010	15:46:51	1	BlockProc	SessionList	2	2	1	17	NULL	NULL	NULL	NULL	17	2	17	Scenes	NULL	NULL	NULL	Categorize	2	6390	0	147799	10	141509	0	NULL	NULL	scene/s_387.bmp	NULL	NULL	NULL	NULL	NULL	NULL	Repeat	FFSFFFSFFSSFSFSSSFSS	NULL	NULL	NULL	TrialProc	Irrelevant	BlockList	1	2	0	141399	10	140909	2	410	141319
TRSEscan	107	3	60.001	1	-508440033	5/7/2010	15:46:51	1	BlockProc	SessionList	2	2	1	18	NULL	NULL	NULL	NULL	18	2	18	Scenes	NULL	NULL	NULL	Categorize	2	2390	0	150799	10	148509	0	NULL	NULL	scene/s_387.bmp	NULL	NULL	NULL	NULL	NULL	NULL	Repeat	FFSFFFSFFSSFSFSSSFSS	NULL	NULL	NULL	TrialProc	Irrelevant	BlockList	1	2	0	148399	10	147909	2	513	148422
TRSEscan	107	3	60.001	1	-508440033	5/7/2010	15:46:51	1	BlockProc	SessionList	2	2	1	19	NULL	NULL	NULL	NULL	19	2	19	Faces	NULL	NULL	NULL	Categorize	1	2390	0	153799	10	151509	3	NULL	NULL	face/m_080.bmp	NULL	NULL	NULL	NULL	NULL	NULL	Repeat	FFSFFFSFFSSFSFSSSFSS	NULL	NULL	NULL	TrialProc	Irrelevant	BlockList	1	1	0	151399	10	150909	1	681	151590
TRSEscan	107	3	60.001	1	-508440033	5/7/2010	15:46:51	1	BlockProc	SessionList	2	2	1	20	NULL	NULL	NULL	NULL	20	2	20	Scenes	NULL	NULL	NULL	Categorize	2	4390	0	158799	10	154509	1	NULL	NULL	scene/s_316.bmp	NULL	NULL	NULL	NULL	NULL	NULL	Novel	FFSFFFSFFSSFSFSSSFSS	NULL	NULL	NULL	TrialProc	Irrelevant	BlockList	1	2	0	154399	10	153909	2	497	154406
TRSEscan	107	3	60.001	1	-508440033	5/7/2010	15:46:51	1	BlockProc	SessionList	2	2	1	21	NULL	NULL	NULL	NULL	21	2	21	Scenes	NULL	NULL	NULL	Categorize	2	6390	0	165799	10	159509	0	NULL	NULL	scene/s_316.bmp	NULL	NULL	NULL	NULL	NULL	NULL	Repeat	FFSFFFSFFSSFSFSSSFSS	NULL	NULL	NULL	TrialProc	Irrelevant	BlockList	1	2	0	159399	10	158909	2	489	159398
TRSEscan	107	3	60.001	1	-508440033	5/7/2010	15:46:51	1	BlockProc	SessionList	2	2	1	22	NULL	NULL	NULL	NULL	22	2	22		NULL	NULL	NULL	Categorize			NULL	NULL	NULL	NULL		180798	178908		NULL	NULL	NULL	NULL	NULL	NULL			NULL	NULL	NULL	FeedbackProc		BlockList	NULL	NULL	NULL	NULL	NULL	NULL	NULL	NULL	NULL
TRSEscan	107	3	60.001	1	-508440033	5/7/2010	15:46:51	2	BlockProc	SessionList	2	2	2	1	-999999	182246	10	180908	1	3	23		1	2	2116	Both			NULL	NULL	NULL	NULL		NULL	NULL		200333	1	185376	0	201331	200341			0	203231	201341	InstrProc		BlockList	NULL	NULL	NULL	NULL	NULL	NULL	NULL	NULL	NULL
TRSEscan	107	3	60.001	1	-508440033	5/7/2010	15:46:51	2	BlockProc	SessionList	2	2	2	2	NULL	NULL	NULL	NULL	2	3	24	Faces	NULL	NULL	NULL	Both	1	4390	0	208231	10	203941	0	NULL	NULL	face/m_141.bmp	NULL	NULL	NULL	NULL	NULL	NULL	Novel	FFSFFFSFFSSFSFSSSFSS	NULL	NULL	NULL	TrialProc	Relevant	BlockList	1	1	0	203831	10	203341	1	648	203989
TRSEscan	107	3	60.001	1	-508440033	5/7/2010	15:46:51	2	BlockProc	SessionList	2	2	2	3	NULL	NULL	NULL	NULL	3	3	25	Faces	NULL	NULL	NULL	Both	1	2390	0	211231	10	208941	0	NULL	NULL	face/m_079.bmp	NULL	NULL	NULL	NULL	NULL	NULL	Novel	FFSFFFSFFSSFSFSSSFSS	NULL	NULL	NULL	TrialProc	Relevant	BlockList	1	1	0	208831	10	208341	1	824	209165
TRSEscan	107	3	60.001	1	-508440033	5/7/2010	15:46:51	2	BlockProc	SessionList	2	2	2	4	NULL	NULL	NULL	NULL	4	3	26	Scenes	NULL	NULL	NULL	Both	1	2390	0	214231	10	211941	2	NULL	NULL	scene/s_277.bmp	NULL	NULL	NULL	NULL	NULL	NULL	Novel	FFSFFFSFFSSFSFSSSFSS	NULL	NULL	NULL	TrialProc	Relevant	BlockList	1	1	0	211831	10	211341	1	856	212197
TRSEscan	107	3	60.001	1	-508440033	5/7/2010	15:46:51	2	BlockProc	SessionList	2	2	2	5	NULL	NULL	NULL	NULL	5	3	27	Faces	NULL	NULL	NULL	Both	1	6390	0	221231	10	214941	1	NULL	NULL	face/m_134.bmp	NULL	NULL	NULL	NULL	NULL	NULL	Novel	FFSFFFSFFSSFSFSSSFSS	NULL	NULL	NULL	TrialProc	Relevant	BlockList	1	1	0	214831	10	214341	1	704	215045
TRSEscan	107	3	60.001	1	-508440033	5/7/2010	15:46:51	2	BlockProc	SessionList	2	2	2	6	NULL	NULL	NULL	NULL	6	3	28	Faces	NULL	NULL	NULL	Both	2	4390	0	226231	10	221941	0	NULL	NULL	face/m_134.bmp	NULL	NULL	NULL	NULL	NULL	NULL	Repeat	FFSFFFSFFSSFSFSSSFSS	NULL	NULL	NULL	TrialProc	Relevant	BlockList	1	2	0	221831	10	221341	2	632	221973
TRSEscan	107	3	60.001	1	-508440033	5/7/2010	15:46:51	2	BlockProc	SessionList	2	2	2	7	NULL	NULL	NULL	NULL	7	3	29	Faces	NULL	NULL	NULL	Both	1	6390	0	233231	10	226941	0	NULL	NULL	face/f_021.bmp	NULL	NULL	NULL	NULL	NULL	NULL	Novel	FFSFFFSFFSSFSFSSSFSS	NULL	NULL	NULL	TrialProc	Relevant	BlockList	1	1	0	226831	10	226341	1	680	227021
TRSEscan	107	3	60.001	1	-508440033	5/7/2010	15:46:51	2	BlockProc	SessionList	2	2	2	8	NULL	NULL	NULL	NULL	8	3	30	Scenes	NULL	NULL	NULL	Both	1	2390	0	236231	10	233941	3	NULL	NULL	scene/s_312.bmp	NULL	NULL	NULL	NULL	NULL	NULL	Novel	FFSFFFSFFSSFSFSSSFSS	NULL	NULL	NULL	TrialProc	Relevant	BlockList	1	1	0	233831	10	233341	1	704	234045
TRSEscan	107	3	60.001	1	-508440033	5/7/2010	15:46:51	2	BlockProc	SessionList	2	2	2	9	NULL	NULL	NULL	NULL	9	3	31	Faces	NULL	NULL	NULL	Both	1	4390	0	241230	10	236940	1	NULL	NULL	face/f_042.bmp	NULL	NULL	NULL	NULL	NULL	NULL	Novel	FFSFFFSFFSSFSFSSSFSS	NULL	NULL	NULL	TrialProc	Relevant	BlockList	1	1	0	236830	9	236340	1	825	237165
TRSEscan	107	3	60.001	1	-508440033	5/7/2010	15:46:51	2	BlockProc	SessionList	2	2	2	10	NULL	NULL	NULL	NULL	10	3	32	Faces	NULL	NULL	NULL	Both	2	6390	0	248230	10	241940	0	NULL	NULL	face/f_042.bmp	NULL	NULL	NULL	NULL	NULL	NULL	Repeat	FFSFFFSFFSSFSFSSSFSS	NULL	NULL	NULL	TrialProc	Relevant	BlockList	1	2	0	241830	10	241340	2	673	242013
TRSEscan	107	3	60.001	1	-508440033	5/7/2010	15:46:51	2	BlockProc	SessionList	2	2	2	11	NULL	NULL	NULL	NULL	11	3	33	Scenes	NULL	NULL	NULL	Both	1	4390	0	253230	10	248940	2	NULL	NULL	scene/s_380.bmp	NULL	NULL	NULL	NULL	NULL	NULL	Novel	FFSFFFSFFSSFSFSSSFSS	NULL	NULL	NULL	TrialProc	Relevant	BlockList	1	1	0	248830	10	248340	1	656	248996
TRSEscan	107	3	60.001	1	-508440033	5/7/2010	15:46:51	2	BlockProc	SessionList	2	2	2	12	NULL	NULL	NULL	NULL	12	3	34	Scenes	NULL	NULL	NULL	Both	2	2390	0	256230	10	253940	0	NULL	NULL	scene/s_380.bmp	NULL	NULL	NULL	NULL	NULL	NULL	Repeat	FFSFFFSFFSSFSFSSSFSS	NULL	NULL	NULL	TrialProc	Relevant	BlockList	1	2	0	253830	10	253340	2	784	254124
TRSEscan	107	3	60.001	1	-508440033	5/7/2010	15:46:51	2	BlockProc	SessionList	2	2	2	13	NULL	NULL	NULL	NULL	13	3	35	Faces	NULL	NULL	NULL	Both	2	4390	0	261230	10	256940	2	NULL	NULL	face/f_042.bmp	NULL	NULL	NULL	NULL	NULL	NULL	Repeat	FFSFFFSFFSSFSFSSSFSS	NULL	NULL	NULL	TrialProc	Relevant	BlockList	1	2	0	256830	10	256340	2	616	256956
TRSEscan	107	3	60.001	1	-508440033	5/7/2010	15:46:51	2	BlockProc	SessionList	2	2	2	14	NULL	NULL	NULL	NULL	14	3	36	Scenes	NULL	NULL	NULL	Both	1	2390	0	264230	10	261940	1	NULL	NULL	scene/s_416.bmp	NULL	NULL	NULL	NULL	NULL	NULL	Novel	FFSFFFSFFSSFSFSSSFSS	NULL	NULL	NULL	TrialProc	Relevant	BlockList	1	1	0	261830	10	261340	1	584	261924
TRSEscan	107	3	60.001	1	-508440033	5/7/2010	15:46:51	2	BlockProc	SessionList	2	2	2	15	NULL	NULL	NULL	NULL	15	3	37	Faces	NULL	NULL	NULL	Both	1	6390	0	271230	10	264940	1	NULL	NULL	face/m_105.bmp	NULL	NULL	NULL	NULL	NULL	NULL	Novel	FFSFFFSFFSSFSFSSSFSS	NULL	NULL	NULL	TrialProc	Relevant	BlockList	1	1	0	264830	10	264340	1	720	265060
TRSEscan	107	3	60.001	1	-508440033	5/7/2010	15:46:51	2	BlockProc	SessionList	2	2	2	16	NULL	NULL	NULL	NULL	16	3	38	Scenes	NULL	NULL	NULL	Both	1	4390	0	276230	10	271940	1	NULL	NULL	scene/s_109.bmp	NULL	NULL	NULL	NULL	NULL	NULL	Novel	FFSFFFSFFSSFSFSSSFSS	NULL	NULL	NULL	TrialProc	Relevant	BlockList	1	1	0	271830	10	271340	1	744	272084
TRSEscan	107	3	60.001	1	-508440033	5/7/2010	15:46:51	2	BlockProc	SessionList	2	2	2	17	NULL	NULL	NULL	NULL	17	3	39	Scenes	NULL	NULL	NULL	Both	2	6390	0	283230	10	276940	0	NULL	NULL	scene/s_109.bmp	NULL	NULL	NULL	NULL	NULL	NULL	Repeat	FFSFFFSFFSSFSFSSSFSS	NULL	NULL	NULL	TrialProc	Relevant	BlockList	1	2	0	276830	10	276340	2	800	277140
TRSEscan	107	3	60.001	1	-508440033	5/7/2010	15:46:51	2	BlockProc	SessionList	2	2	2	18	NULL	NULL	NULL	NULL	18	3	40	Scenes	NULL	NULL	NULL	Both	2	2390	0	286229	10	283939	0	NULL	NULL	scene/s_109.bmp	NULL	NULL	NULL	NULL	NULL	NULL	Repeat	FFSFFFSFFSSFSFSSSFSS	NULL	NULL	NULL	TrialProc	Relevant	BlockList	1	2	0	283829	9	283339	2	529	283868
TRSEscan	107	3	60.001	1	-508440033	5/7/2010	15:46:51	2	BlockProc	SessionList	2	2	2	19	NULL	NULL	NULL	NULL	19	3	41	Faces	NULL	NULL	NULL	Both	2	2390	0	289229	10	286939	3	NULL	NULL	face/m_105.bmp	NULL	NULL	NULL	NULL	NULL	NULL	Repeat	FFSFFFSFFSSFSFSSSFSS	NULL	NULL	NULL	TrialProc	Relevant	BlockList	1	2	0	286829	10	286339	2	505	286844
TRSEscan	107	3	60.001	1	-508440033	5/7/2010	15:46:51	2	BlockProc	SessionList	2	2	2	20	NULL	NULL	NULL	NULL	20	3	42	Scenes	NULL	NULL	NULL	Both	1	4390	0	294229	10	289939	1	NULL	NULL	scene/s_126.bmp	NULL	NULL	NULL	NULL	NULL	NULL	Novel	FFSFFFSFFSSFSFSSSFSS	NULL	NULL	NULL	TrialProc	Relevant	BlockList	1	1	0	289829	10	289339	1	745	290084
TRSEscan	107	3	60.001	1	-508440033	5/7/2010	15:46:51	2	BlockProc	SessionList	2	2	2	21	NULL	NULL	NULL	NULL	21	3	43	Scenes	NULL	NULL	NULL	Both	2	6390	0	301229	10	294939	0	NULL	NULL	scene/s_126.bmp	NULL	NULL	NULL	NULL	NULL	NULL	Repeat	FFSFFFSFFSSFSFSSSFSS	NULL	NULL	NULL	TrialProc	Relevant	BlockList	1	2	0	294829	10	294339	2	744	295083
TRSEscan	107	3	60.001	1	-508440033	5/7/2010	15:46:51	2	BlockProc	SessionList	2	2	2	22	NULL	NULL	NULL	NULL	22	3	44		NULL	NULL	NULL	Both			NULL	NULL	NULL	NULL		316229	314339		NULL	NULL	NULL	NULL	NULL	NULL			NULL	NULL	NULL	FeedbackProc		BlockList	NULL	NULL	NULL	NULL	NULL	NULL	NULL	NULL	NULL
TRSEscan	107	3	60.001	1	-508440033	5/7/2010	15:46:51	3	BlockProc	SessionList	2	2	3	1	-999999	317827	10	316339	1	4	45		1	2	748	Faces			NULL	NULL	NULL	NULL		NULL	NULL		335715	1	319590	0	336712	335722			0	338612	336722	InstrProc		BlockList	NULL	NULL	NULL	NULL	NULL	NULL	NULL	NULL	NULL
TRSEscan	107	3	60.001	1	-508440033	5/7/2010	15:46:51	3	BlockProc	SessionList	2	2	3	2	NULL	NULL	NULL	NULL	2	4	46	Faces	NULL	NULL	NULL	Faces	1	4390	0	343612	10	339322	0	NULL	NULL	face/m_119.bmp	NULL	NULL	NULL	NULL	NULL	NULL	Novel	FFSFFFSFFSSFSFSSSFSS	NULL	NULL	NULL	TrialProc	Relevant	BlockList	1	1	0	339212	10	338722	1	744	339466
TRSEscan	107	3	60.001	1	-508440033	5/7/2010	15:46:51	3	BlockProc	SessionList	2	2	3	3	NULL	NULL	NULL	NULL	3	4	47	Faces	NULL	NULL	NULL	Faces	1	2390	0	346612	10	344322	0	NULL	NULL	face/f_047.bmp	NULL	NULL	NULL	NULL	NULL	NULL	Novel	FFSFFFSFFSSFSFSSSFSS	NULL	NULL	NULL	TrialProc	Relevant	BlockList	1	1	0	344212	10	343722	1	648	344370
TRSEscan	107	3	60.001	1	-508440033	5/7/2010	15:46:51	3	BlockProc	SessionList	2	2	3	4	NULL	NULL	NULL	NULL	4	4	48	Scenes	NULL	NULL	NULL	Faces	1	2390	0	349611	10	347321	2	NULL	NULL	scene/s_104.bmp	NULL	NULL	NULL	NULL	NULL	NULL	Novel	FFSFFFSFFSSFSFSSSFSS	NULL	NULL	NULL	TrialProc	Irrelevant	BlockList	1	1	0	347211	9	346721	1	769	347490
TRSEscan	107	3	60.001	1	-508440033	5/7/2010	15:46:51	3	BlockProc	SessionList	2	2	3	5	NULL	NULL	NULL	NULL	5	4	49	Faces	NULL	NULL	NULL	Faces	1	6390	0	356611	10	350321	1	NULL	NULL	face/f_134.bmp	NULL	NULL	NULL	NULL	NULL	NULL	Novel	FFSFFFSFFSSFSFSSSFSS	NULL	NULL	NULL	TrialProc	Relevant	BlockList	1	1	0	350211	10	349721	1	761	350482
TRSEscan	107	3	60.001	1	-508440033	5/7/2010	15:46:51	3	BlockProc	SessionList	2	2	3	6	NULL	NULL	NULL	NULL	6	4	50	Faces	NULL	NULL	NULL	Faces	2	4390	0	361611	10	357321	0	NULL	NULL	face/f_134.bmp	NULL	NULL	NULL	NULL	NULL	NULL	Repeat	FFSFFFSFFSSFSFSSSFSS	NULL	NULL	NULL	TrialProc	Relevant	BlockList	1	2	0	357211	10	356721	2	577	357298
TRSEscan	107	3	60.001	1	-508440033	5/7/2010	15:46:51	3	BlockProc	SessionList	2	2	3	7	NULL	NULL	NULL	NULL	7	4	51	Faces	NULL	NULL	NULL	Faces	1	6390	0	368611	10	362321	0	NULL	NULL	face/f_070.bmp	NULL	NULL	NULL	NULL	NULL	NULL	Novel	FFSFFFSFFSSFSFSSSFSS	NULL	NULL	NULL	TrialProc	Relevant	BlockList	1	1	0	362211	10	361721	1	737	362458
TRSEscan	107	3	60.001	1	-508440033	5/7/2010	15:46:51	3	BlockProc	SessionList	2	2	3	8	NULL	NULL	NULL	NULL	8	4	52	Scenes	NULL	NULL	NULL	Faces	1	2390	0	371611	10	369321	3	NULL	NULL	scene/s_194.bmp	NULL	NULL	NULL	NULL	NULL	NULL	Novel	FFSFFFSFFSSFSFSSSFSS	NULL	NULL	NULL	TrialProc	Irrelevant	BlockList	1	1	0	369211	10	368721	1	449	369170
TRSEscan	107	3	60.001	1	-508440033	5/7/2010	15:46:51	3	BlockProc	SessionList	2	2	3	9	NULL	NULL	NULL	NULL	9	4	53	Faces	NULL	NULL	NULL	Faces	1	4390	0	376611	10	372321	1	NULL	NULL	face/m_129.bmp	NULL	NULL	NULL	NULL	NULL	NULL	Novel	FFSFFFSFFSSFSFSSSFSS	NULL	NULL	NULL	TrialProc	Relevant	BlockList	1	1	0	372211	10	371721	1	633	372354
TRSEscan	107	3	60.001	1	-508440033	5/7/2010	15:46:51	3	BlockProc	SessionList	2	2	3	10	NULL	NULL	NULL	NULL	10	4	54	Faces	NULL	NULL	NULL	Faces	2	6390	0	383611	10	377321	0	NULL	NULL	face/m_129.bmp	NULL	NULL	NULL	NULL	NULL	NULL	Repeat	FFSFFFSFFSSFSFSSSFSS	NULL	NULL	NULL	TrialProc	Relevant	BlockList	1	2	0	377211	10	376721	2	625	377346
TRSEscan	107	3	60.001	1	-508440033	5/7/2010	15:46:51	3	BlockProc	SessionList	2	2	3	11	NULL	NULL	NULL	NULL	11	4	55	Scenes	NULL	NULL	NULL	Faces	1	4390	0	388611	10	384321	2	NULL	NULL	scene/s_214.bmp	NULL	NULL	NULL	NULL	NULL	NULL	Novel	FFSFFFSFFSSFSFSSSFSS	NULL	NULL	NULL	TrialProc	Irrelevant	BlockList	1	1	0	384211	10	383721	1	440	384161
TRSEscan	107	3	60.001	1	-508440033	5/7/2010	15:46:51	3	BlockProc	SessionList	2	2	3	12	NULL	NULL	NULL	NULL	12	4	56	Scenes	NULL	NULL	NULL	Faces	1	2390	0	391611	10	389321	0	NULL	NULL	scene/s_214.bmp	NULL	NULL	NULL	NULL	NULL	NULL	Repeat	FFSFFFSFFSSFSFSSSFSS	NULL	NULL	NULL	TrialProc	Irrelevant	BlockList	1	1	0	389211	10	388721	1	640	389361
TRSEscan	107	3	60.001	1	-508440033	5/7/2010	15:46:51	3	BlockProc	SessionList	2	2	3	13	NULL	NULL	NULL	NULL	13	4	57	Faces	NULL	NULL	NULL	Faces	2	4390	0	396610	9	392320	2	NULL	NULL	face/m_129.bmp	NULL	NULL	NULL	NULL	NULL	NULL	Repeat	FFSFFFSFFSSFSFSSSFSS	NULL	NULL	NULL	TrialProc	Relevant	BlockList	1	2	0	392211	10	391721	2	744	392465
TRSEscan	107	3	60.001	1	-508440033	5/7/2010	15:46:51	3	BlockProc	SessionList	2	2	3	14	NULL	NULL	NULL	NULL	14	4	58	Scenes	NULL	NULL	NULL	Faces	1	2390	0	399610	10	397320	1	NULL	NULL	scene/s_297.bmp	NULL	NULL	NULL	NULL	NULL	NULL	Novel	FFSFFFSFFSSFSFSSSFSS	NULL	NULL	NULL	TrialProc	Irrelevant	BlockList	1	1	0	397210	10	396720	1	665	397385
TRSEscan	107	3	60.001	1	-508440033	5/7/2010	15:46:51	3	BlockProc	SessionList	2	2	3	15	NULL	NULL	NULL	NULL	15	4	59	Faces	NULL	NULL	NULL	Faces	1	6390	0	406610	10	400320	1	NULL	NULL	face/f_048.bmp	NULL	NULL	NULL	NULL	NULL	NULL	Novel	FFSFFFSFFSSFSFSSSFSS	NULL	NULL	NULL	TrialProc	Relevant	BlockList	1	1	0	400210	10	399720	1	721	400441
TRSEscan	107	3	60.001	1	-508440033	5/7/2010	15:46:51	3	BlockProc	SessionList	2	2	3	16	NULL	NULL	NULL	NULL	16	4	60	Scenes	NULL	NULL	NULL	Faces	1	4390	0	411610	10	407320	1	NULL	NULL	scene/s_326.bmp	NULL	NULL	NULL	NULL	NULL	NULL	Novel	FFSFFFSFFSSFSFSSSFSS	NULL	NULL	NULL	TrialProc	Irrelevant	BlockList	1	1	0	407210	10	406720	1	369	407089
TRSEscan	107	3	60.001	1	-508440033	5/7/2010	15:46:51	3	BlockProc	SessionList	2	2	3	17	NULL	NULL	NULL	NULL	17	4	61	Scenes	NULL	NULL	NULL	Faces	1	6390	0	418610	10	412320	0	NULL	NULL	scene/s_326.bmp	NULL	NULL	NULL	NULL	NULL	NULL	Repeat	FFSFFFSFFSSFSFSSSFSS	NULL	NULL	NULL	TrialProc	Irrelevant	BlockList	1	1	0	412210	10	411720	1	521	412241
TRSEscan	107	3	60.001	1	-508440033	5/7/2010	15:46:51	3	BlockProc	SessionList	2	2	3	18	NULL	NULL	NULL	NULL	18	4	62	Scenes	NULL	NULL	NULL	Faces	1	2390	0	421610	10	419320	0	NULL	NULL	scene/s_326.bmp	NULL	NULL	NULL	NULL	NULL	NULL	Repeat	FFSFFFSFFSSFSFSSSFSS	NULL	NULL	NULL	TrialProc	Irrelevant	BlockList	1	1	0	419210	10	418720	1	513	419233
TRSEscan	107	3	60.001	1	-508440033	5/7/2010	15:46:51	3	BlockProc	SessionList	2	2	3	19	NULL	NULL	NULL	NULL	19	4	63	Faces	NULL	NULL	NULL	Faces	2	2390	0	424610	10	422320	3	NULL	NULL	face/f_048.bmp	NULL	NULL	NULL	NULL	NULL	NULL	Repeat	FFSFFFSFFSSFSFSSSFSS	NULL	NULL	NULL	TrialProc	Relevant	BlockList	1	2	0	422210	10	421720	2	729	422449
TRSEscan	107	3	60.001	1	-508440033	5/7/2010	15:46:51	3	BlockProc	SessionList	2	2	3	20	NULL	NULL	NULL	NULL	20	4	64	Scenes	NULL	NULL	NULL	Faces	1	4390	0	429610	10	425320	1	NULL	NULL	scene/s_323.bmp	NULL	NULL	NULL	NULL	NULL	NULL	Novel	FFSFFFSFFSSFSFSSSFSS	NULL	NULL	NULL	TrialProc	Irrelevant	BlockList	1	1	0	425210	10	424720	1	417	425137
TRSEscan	107	3	60.001	1	-508440033	5/7/2010	15:46:51	3	BlockProc	SessionList	2	2	3	21	NULL	NULL	NULL	NULL	21	4	65	Scenes	NULL	NULL	NULL	Faces	1	6390	0	436610	10	430320	0	NULL	NULL	scene/s_323.bmp	NULL	NULL	NULL	NULL	NULL	NULL	Repeat	FFSFFFSFFSSFSFSSSFSS	NULL	NULL	NULL	TrialProc	Irrelevant	BlockList	1	1	0	430210	10	429720	1	473	430193
TRSEscan	107	3	60.001	1	-508440033	5/7/2010	15:46:51	3	BlockProc	SessionList	2	2	3	22	NULL	NULL	NULL	NULL	22	4	66		NULL	NULL	NULL	Faces			NULL	NULL	NULL	NULL		451609	449719		NULL	NULL	NULL	NULL	NULL	NULL			NULL	NULL	NULL	FeedbackProc		BlockList	NULL	NULL	NULL	NULL	NULL	NULL	NULL	NULL	NULL
TRSEscan	107	3	60.001	1	-508440033	5/7/2010	15:46:51	4	BlockProc	SessionList	2	2	4	1	-999999	453064	10	451719	1	5	67		1	2	859	Scenes			NULL	NULL	NULL	NULL		NULL	NULL		471928	1	454937	0	472925	471935			0	474825	472935	InstrProc		BlockList	NULL	NULL	NULL	NULL	NULL	NULL	NULL	NULL	NULL
TRSEscan	107	3	60.001	1	-508440033	5/7/2010	15:46:51	4	BlockProc	SessionList	2	2	4	2	NULL	NULL	NULL	NULL	2	5	68	Faces	NULL	NULL	NULL	Scenes	1	4390	0	479825	10	475535	0	NULL	NULL	face/m_028.bmp	NULL	NULL	NULL	NULL	NULL	NULL	Novel	FFSFFFSFFSSFSFSSSFSS	NULL	NULL	NULL	TrialProc	Irrelevant	BlockList	1	1	0	475425	10	474935	1	505	475440
TRSEscan	107	3	60.001	1	-508440033	5/7/2010	15:46:51	4	BlockProc	SessionList	2	2	4	3	NULL	NULL	NULL	NULL	3	5	69	Faces	NULL	NULL	NULL	Scenes	1	2390	0	482825	10	480535	0	NULL	NULL	face/f_069.bmp	NULL	NULL	NULL	NULL	NULL	NULL	Novel	FFSFFFSFFSSFSFSSSFSS	NULL	NULL	NULL	TrialProc	Irrelevant	BlockList	1	1	0	480425	10	479935	1	473	480408
TRSEscan	107	3	60.001	1	-508440033	5/7/2010	15:46:51	4	BlockProc	SessionList	2	2	4	4	NULL	NULL	NULL	NULL	4	5	70	Scenes	NULL	NULL	NULL	Scenes	1	2390	0	485825	10	483535	2	NULL	NULL	scene/s_252.bmp	NULL	NULL	NULL	NULL	NULL	NULL	Novel	FFSFFFSFFSSFSFSSSFSS	NULL	NULL	NULL	TrialProc	Relevant	BlockList	1	1	0	483425	10	482935	1	665	483600
TRSEscan	107	3	60.001	1	-508440033	5/7/2010	15:46:51	4	BlockProc	SessionList	2	2	4	5	NULL	NULL	NULL	NULL	5	5	71	Faces	NULL	NULL	NULL	Scenes	1	6390	0	492825	10	486535	1	NULL	NULL	face/m_147.bmp	NULL	NULL	NULL	NULL	NULL	NULL	Novel	FFSFFFSFFSSFSFSSSFSS	NULL	NULL	NULL	TrialProc	Irrelevant	BlockList	1	1	0	486425	10	485935	1	465	486400
TRSEscan	107	3	60.001	1	-508440033	5/7/2010	15:46:51	4	BlockProc	SessionList	2	2	4	6	NULL	NULL	NULL	NULL	6	5	72	Faces	NULL	NULL	NULL	Scenes	1	4390	0	497825	10	493535	0	NULL	NULL	face/m_147.bmp	NULL	NULL	NULL	NULL	NULL	NULL	Repeat	FFSFFFSFFSSFSFSSSFSS	NULL	NULL	NULL	TrialProc	Irrelevant	BlockList	1	1	0	493425	10	492935	1	464	493399
TRSEscan	107	3	60.001	1	-508440033	5/7/2010	15:46:51	4	BlockProc	SessionList	2	2	4	7	NULL	NULL	NULL	NULL	7	5	73	Faces	NULL	NULL	NULL	Scenes	1	6390	0	504825	10	498535	0	NULL	NULL	face/m_077.bmp	NULL	NULL	NULL	NULL	NULL	NULL	Novel	FFSFFFSFFSSFSFSSSFSS	NULL	NULL	NULL	TrialProc	Irrelevant	BlockList	1	1	0	498425	10	497935	1	512	498447
TRSEscan	107	3	60.001	1	-508440033	5/7/2010	15:46:51	4	BlockProc	SessionList	2	2	4	8	NULL	NULL	NULL	NULL	8	5	74	Scenes	NULL	NULL	NULL	Scenes	1	2390	0	507825	10	505535	3	NULL	NULL	scene/s_355.bmp	NULL	NULL	NULL	NULL	NULL	NULL	Novel	FFSFFFSFFSSFSFSSSFSS	NULL	NULL	NULL	TrialProc	Relevant	BlockList	1	1	0	505425	10	504935	1	560	505495
TRSEscan	107	3	60.001	1	-508440033	5/7/2010	15:46:51	4	BlockProc	SessionList	2	2	4	9	NULL	NULL	NULL	NULL	9	5	75	Faces	NULL	NULL	NULL	Scenes	1	4390	0	512825	10	508535	1	NULL	NULL	face/m_027.bmp	NULL	NULL	NULL	NULL	NULL	NULL	Novel	FFSFFFSFFSSFSFSSSFSS	NULL	NULL	NULL	TrialProc	Irrelevant	BlockList	1	1	0	508425	10	507935	1	552	508487
TRSEscan	107	3	60.001	1	-508440033	5/7/2010	15:46:51	4	BlockProc	SessionList	2	2	4	10	NULL	NULL	NULL	NULL	10	5	76	Faces	NULL	NULL	NULL	Scenes	1	6390	0	519825	10	513535	0	NULL	NULL	face/m_027.bmp	NULL	NULL	NULL	NULL	NULL	NULL	Repeat	FFSFFFSFFSSFSFSSSFSS	NULL	NULL	NULL	TrialProc	Irrelevant	BlockList	1	1	0	513425	10	512935	1	472	513407
TRSEscan	107	3	60.001	1	-508440033	5/7/2010	15:46:51	4	BlockProc	SessionList	2	2	4	11	NULL	NULL	NULL	NULL	11	5	77	Scenes	NULL	NULL	NULL	Scenes	1	4390	0	524824	10	520534	2	NULL	NULL	scene/s_432.bmp	NULL	NULL	NULL	NULL	NULL	NULL	Novel	FFSFFFSFFSSFSFSSSFSS	NULL	NULL	NULL	TrialProc	Relevant	BlockList	1	1	0	520424	9	519934	1	713	520647
TRSEscan	107	3	60.001	1	-508440033	5/7/2010	15:46:51	4	BlockProc	SessionList	2	2	4	12	NULL	NULL	NULL	NULL	12	5	78	Scenes	NULL	NULL	NULL	Scenes	2	2390	0	527824	10	525534	0	NULL	NULL	scene/s_432.bmp	NULL	NULL	NULL	NULL	NULL	NULL	Repeat	FFSFFFSFFSSFSFSSSFSS	NULL	NULL	NULL	TrialProc	Relevant	BlockList	1	2	0	525424	10	524934	2	673	525607
TRSEscan	107	3	60.001	1	-508440033	5/7/2010	15:46:51	4	BlockProc	SessionList	2	2	4	13	NULL	NULL	NULL	NULL	13	5	79	Faces	NULL	NULL	NULL	Scenes	1	4390	0	532824	10	528534	2	NULL	NULL	face/m_027.bmp	NULL	NULL	NULL	NULL	NULL	NULL	Repeat	FFSFFFSFFSSFSFSSSFSS	NULL	NULL	NULL	TrialProc	Irrelevant	BlockList	1	1	0	528424	10	527934	1	465	528399
TRSEscan	107	3	60.001	1	-508440033	5/7/2010	15:46:51	4	BlockProc	SessionList	2	2	4	14	NULL	NULL	NULL	NULL	14	5	80	Scenes	NULL	NULL	NULL	Scenes	1	2390	0	535824	10	533534	1	NULL	NULL	scene/s_050.bmp	NULL	NULL	NULL	NULL	NULL	NULL	Novel	FFSFFFSFFSSFSFSSSFSS	NULL	NULL	NULL	TrialProc	Relevant	BlockList	1	1	0	533424	10	532934	1	705	533639
TRSEscan	107	3	60.001	1	-508440033	5/7/2010	15:46:51	4	BlockProc	SessionList	2	2	4	15	NULL	NULL	NULL	NULL	15	5	81	Faces	NULL	NULL	NULL	Scenes	1	6390	0	542824	10	536534	1	NULL	NULL	face/f_118.bmp	NULL	NULL	NULL	NULL	NULL	NULL	Novel	FFSFFFSFFSSFSFSSSFSS	NULL	NULL	NULL	TrialProc	Irrelevant	BlockList	1	1	0	536424	10	535934	1	536	536470
TRSEscan	107	3	60.001	1	-508440033	5/7/2010	15:46:51	4	BlockProc	SessionList	2	2	4	16	NULL	NULL	NULL	NULL	16	5	82	Scenes	NULL	NULL	NULL	Scenes	1	4390	0	547824	10	543534	1	NULL	NULL	scene/s_146.bmp	NULL	NULL	NULL	NULL	NULL	NULL	Novel	FFSFFFSFFSSFSFSSSFSS	NULL	NULL	NULL	TrialProc	Relevant	BlockList	1	1	0	543424	10	542934	1	600	543534
TRSEscan	107	3	60.001	1	-508440033	5/7/2010	15:46:51	4	BlockProc	SessionList	2	2	4	17	NULL	NULL	NULL	NULL	17	5	83	Scenes	NULL	NULL	NULL	Scenes	2	6390	0	554824	10	548534	0	NULL	NULL	scene/s_146.bmp	NULL	NULL	NULL	NULL	NULL	NULL	Repeat	FFSFFFSFFSSFSFSSSFSS	NULL	NULL	NULL	TrialProc	Relevant	BlockList	1	2	0	548424	10	547934	2	536	548470
TRSEscan	107	3	60.001	1	-508440033	5/7/2010	15:46:51	4	BlockProc	SessionList	2	2	4	18	NULL	NULL	NULL	NULL	18	5	84	Scenes	NULL	NULL	NULL	Scenes	2	2390	0	557824	10	555534	0	NULL	NULL	scene/s_146.bmp	NULL	NULL	NULL	NULL	NULL	NULL	Repeat	FFSFFFSFFSSFSFSSSFSS	NULL	NULL	NULL	TrialProc	Relevant	BlockList	1	2	0	555424	10	554934	2	440	555374
TRSEscan	107	3	60.001	1	-508440033	5/7/2010	15:46:51	4	BlockProc	SessionList	2	2	4	19	NULL	NULL	NULL	NULL	19	5	85	Faces	NULL	NULL	NULL	Scenes	1	2390	0	560824	10	558534	3	NULL	NULL	face/f_118.bmp	NULL	NULL	NULL	NULL	NULL	NULL	Repeat	FFSFFFSFFSSFSFSSSFSS	NULL	NULL	NULL	TrialProc	Irrelevant	BlockList	1	1	0	558424	10	557934	1	496	558430
TRSEscan	107	3	60.001	1	-508440033	5/7/2010	15:46:51	4	BlockProc	SessionList	2	2	4	20	NULL	NULL	NULL	NULL	20	5	86	Scenes	NULL	NULL	NULL	Scenes	1	4390	0	565824	10	561534	1	NULL	NULL	scene/s_009.bmp	NULL	NULL	NULL	NULL	NULL	NULL	Novel	FFSFFFSFFSSFSFSSSFSS	NULL	NULL	NULL	TrialProc	Relevant	BlockList	1	1	0	561424	10	560934	1	861	561795
TRSEscan	107	3	60.001	1	-508440033	5/7/2010	15:46:51	4	BlockProc	SessionList	2	2	4	21	NULL	NULL	NULL	NULL	21	5	87	Scenes	NULL	NULL	NULL	Scenes	2	6390	0	572823	10	566533	0	NULL	NULL	scene/s_009.bmp	NULL	NULL	NULL	NULL	NULL	NULL	Repeat	FFSFFFSFFSSFSFSSSFSS	NULL	NULL	NULL	TrialProc	Relevant	BlockList	1	2	0	566423	9	565933	2	609	566542
TRSEscan	107	3	60.001	1	-508440033	5/7/2010	15:46:51	4	BlockProc	SessionList	2	2	4	22	NULL	NULL	NULL	NULL	22	5	88		NULL	NULL	NULL	Scenes			NULL	NULL	NULL	NULL		587823	585933		NULL	NULL	NULL	NULL	NULL	NULL			NULL	NULL	NULL	FeedbackProc		BlockList	NULL	NULL	NULL	NULL	NULL	NULL	NULL	NULL	NULL
TRSEscan	107	4	60.001	1	99582279	5/7/2010	15:57:29	1	BlockProc	SessionList	2	2	1	1	-999999	28203	4	25317	1	2	1		1	2	794	Both			NULL	NULL	NULL	NULL		NULL	NULL		41906	1	30018	0	42906	41916			0	44806	42916	InstrProc		BlockList	NULL	NULL	NULL	NULL	NULL	NULL	NULL	NULL	NULL
TRSEscan	107	4	60.001	1	99582279	5/7/2010	15:57:29	1	BlockProc	SessionList	2	2	1	2	NULL	NULL	NULL	NULL	2	2	2	Scenes	NULL	NULL	NULL	Both	1	2390	0	47806	10	45516	0	NULL	NULL	scene/s_243.bmp	NULL	NULL	NULL	NULL	NULL	NULL	Novel	SSFSSSFSFSSFFSFFFSFF	NULL	NULL	NULL	TrialProc	Relevant	BlockList	1	1	0	45406	10	44916	1	502	45418
TRSEscan	107	4	60.001	1	99582279	5/7/2010	15:57:29	1	BlockProc	SessionList	2	2	1	3	NULL	NULL	NULL	NULL	3	2	3	Scenes	NULL	NULL	NULL	Both	2	4390	0	52806	10	48516	0	NULL	NULL	scene/s_243.bmp	NULL	NULL	NULL	NULL	NULL	NULL	Repeat	SSFSSSFSFSSFFSFFFSFF	NULL	NULL	NULL	TrialProc	Relevant	BlockList	1	2	0	48406	10	47916	2	574	48490
TRSEscan	107	4	60.001	1	99582279	5/7/2010	15:57:29	1	BlockProc	SessionList	2	2	1	4	NULL	NULL	NULL	NULL	4	2	4	Faces	NULL	NULL	NULL	Both	1	6390	0	59806	10	53516	2	NULL	NULL	face/f_036.bmp	NULL	NULL	NULL	NULL	NULL	NULL	Novel	SSFSSSFSFSSFFSFFFSFF	NULL	NULL	NULL	TrialProc	Relevant	BlockList	1	1	0	53406	10	52916	1	638	53554
TRSEscan	107	4	60.001	1	99582279	5/7/2010	15:57:29	1	BlockProc	SessionList	2	2	1	5	NULL	NULL	NULL	NULL	5	2	5	Scenes	NULL	NULL	NULL	Both	2	4390	0	64806	10	60516	1	NULL	NULL	scene/s_243.bmp	NULL	NULL	NULL	NULL	NULL	NULL	Repeat	SSFSSSFSFSSFFSFFFSFF	NULL	NULL	NULL	TrialProc	Relevant	BlockList	1	2	0	60406	10	59916	2	526	60442
TRSEscan	107	4	60.001	1	99582279	5/7/2010	15:57:29	1	BlockProc	SessionList	2	2	1	6	NULL	NULL	NULL	NULL	6	2	6	Scenes	NULL	NULL	NULL	Both	1	2390	0	67806	10	65516	0	NULL	NULL	scene/s_157.bmp	NULL	NULL	NULL	NULL	NULL	NULL	Novel	SSFSSSFSFSSFFSFFFSFF	NULL	NULL	NULL	TrialProc	Relevant	BlockList	1	1	0	65406	10	64916	1	606	65522
TRSEscan	107	4	60.001	1	99582279	5/7/2010	15:57:29	1	BlockProc	SessionList	2	2	1	7	NULL	NULL	NULL	NULL	7	2	7	Scenes	NULL	NULL	NULL	Both	1	4390	0	72806	10	68516	0	NULL	NULL	scene/s_219.bmp	NULL	NULL	NULL	NULL	NULL	NULL	Novel	SSFSSSFSFSSFFSFFFSFF	NULL	NULL	NULL	TrialProc	Relevant	BlockList	0	1	0	68406	10	67916	2	718	68634
TRSEscan	107	4	60.001	1	99582279	5/7/2010	15:57:29	1	BlockProc	SessionList	2	2	1	8	NULL	NULL	NULL	NULL	8	2	8	Faces	NULL	NULL	NULL	Both	2	2390	0	75806	10	73516	3	NULL	NULL	face/f_036.bmp	NULL	NULL	NULL	NULL	NULL	NULL	Repeat	SSFSSSFSFSSFFSFFFSFF	NULL	NULL	NULL	TrialProc	Relevant	BlockList	1	2	0	73406	10	72916	2	726	73642
TRSEscan	107	4	60.001	1	99582279	5/7/2010	15:57:29	1	BlockProc	SessionList	2	2	1	9	NULL	NULL	NULL	NULL	9	2	9	Scenes	NULL	NULL	NULL	Both	2	6390	0	82806	10	76516	1	NULL	NULL	scene/s_219.bmp	NULL	NULL	NULL	NULL	NULL	NULL	Repeat	SSFSSSFSFSSFFSFFFSFF	NULL	NULL	NULL	TrialProc	Relevant	BlockList	1	2	0	76406	10	75916	2	1117	77033
TRSEscan	107	4	60.001	1	99582279	5/7/2010	15:57:29	1	BlockProc	SessionList	2	2	1	10	NULL	NULL	NULL	NULL	10	2	10	Faces	NULL	NULL	NULL	Both	2	4390	0	87805	10	83515	1	NULL	NULL	face/f_036.bmp	NULL	NULL	NULL	NULL	NULL	NULL	Repeat	SSFSSSFSFSSFFSFFFSFF	NULL	NULL	NULL	TrialProc	Relevant	BlockList	1	2	0	83405	9	82915	2	462	83377
TRSEscan	107	4	60.001	1	99582279	5/7/2010	15:57:29	1	BlockProc	SessionList	2	2	1	11	NULL	NULL	NULL	NULL	11	2	11	Scenes	NULL	NULL	NULL	Both	1	6390	0	94805	10	88515	1	NULL	NULL	scene/s_102.bmp	NULL	NULL	NULL	NULL	NULL	NULL	Novel	SSFSSSFSFSSFFSFFFSFF	NULL	NULL	NULL	TrialProc	Relevant	BlockList	1	1	0	88405	10	87915	1	630	88545
TRSEscan	107	4	60.001	1	99582279	5/7/2010	15:57:29	1	BlockProc	SessionList	2	2	1	12	NULL	NULL	NULL	NULL	12	2	12	Scenes	NULL	NULL	NULL	Both	1	2390	0	97805	10	95515	0	NULL	NULL	scene/s_301.bmp	NULL	NULL	NULL	NULL	NULL	NULL	Novel	SSFSSSFSFSSFFSFFFSFF	NULL	NULL	NULL	TrialProc	Relevant	BlockList	1	1	0	95405	10	94915	1	678	95593
TRSEscan	107	4	60.001	1	99582279	5/7/2010	15:57:29	1	BlockProc	SessionList	2	2	1	13	NULL	NULL	NULL	NULL	13	2	13	Faces	NULL	NULL	NULL	Both	1	2390	0	100805	10	98515	2	NULL	NULL	face/f_096.bmp	NULL	NULL	NULL	NULL	NULL	NULL	Novel	SSFSSSFSFSSFFSFFFSFF	NULL	NULL	NULL	TrialProc	Relevant	BlockList	1	1	0	98405	10	97915	1	638	98553
TRSEscan	107	4	60.001	1	99582279	5/7/2010	15:57:29	1	BlockProc	SessionList	2	2	1	14	NULL	NULL	NULL	NULL	14	2	14	Faces	NULL	NULL	NULL	Both	1	6390	0	107805	10	101515	0	NULL	NULL	face/f_124.bmp	NULL	NULL	NULL	NULL	NULL	NULL	Novel	SSFSSSFSFSSFFSFFFSFF	NULL	NULL	NULL	TrialProc	Relevant	BlockList	1	1	0	101405	10	100915	1	694	101609
TRSEscan	107	4	60.001	1	99582279	5/7/2010	15:57:29	1	BlockProc	SessionList	2	2	1	15	NULL	NULL	NULL	NULL	15	2	15	Scenes	NULL	NULL	NULL	Both	1	4390	0	112805	10	108515	2	NULL	NULL	scene/s_250.bmp	NULL	NULL	NULL	NULL	NULL	NULL	Novel	SSFSSSFSFSSFFSFFFSFF	NULL	NULL	NULL	TrialProc	Relevant	BlockList	1	1	0	108405	10	107915	1	638	108553
TRSEscan	107	4	60.001	1	99582279	5/7/2010	15:57:29	1	BlockProc	SessionList	2	2	1	16	NULL	NULL	NULL	NULL	16	2	16	Faces	NULL	NULL	NULL	Both	2	6390	0	119805	10	113515	1	NULL	NULL	face/f_124.bmp	NULL	NULL	NULL	NULL	NULL	NULL	Repeat	SSFSSSFSFSSFFSFFFSFF	NULL	NULL	NULL	TrialProc	Relevant	BlockList	1	2	0	113405	10	112915	2	622	113537
TRSEscan	107	4	60.001	1	99582279	5/7/2010	15:57:29	1	BlockProc	SessionList	2	2	1	17	NULL	NULL	NULL	NULL	17	2	17	Faces	NULL	NULL	NULL	Both	1	2390	0	122805	10	120515	0	NULL	NULL	face/m_132.bmp	NULL	NULL	NULL	NULL	NULL	NULL	Novel	SSFSSSFSFSSFFSFFFSFF	NULL	NULL	NULL	TrialProc	Relevant	BlockList	1	1	0	120405	10	119915	1	614	120529
TRSEscan	107	4	60.001	1	99582279	5/7/2010	15:57:29	1	BlockProc	SessionList	2	2	1	18	NULL	NULL	NULL	NULL	18	2	18	Faces	NULL	NULL	NULL	Both	1	4390	0	127805	10	123515	0	NULL	NULL	face/m_087.bmp	NULL	NULL	NULL	NULL	NULL	NULL	Novel	SSFSSSFSFSSFFSFFFSFF	NULL	NULL	NULL	TrialProc	Relevant	BlockList	1	1	0	123405	10	122915	1	653	123568
TRSEscan	107	4	60.001	1	99582279	5/7/2010	15:57:29	1	BlockProc	SessionList	2	2	1	19	NULL	NULL	NULL	NULL	19	2	19	Scenes	NULL	NULL	NULL	Both	2	2390	0	130804	10	128514	3	NULL	NULL	scene/s_250.bmp	NULL	NULL	NULL	NULL	NULL	NULL	Repeat	SSFSSSFSFSSFFSFFFSFF	NULL	NULL	NULL	TrialProc	Relevant	BlockList	1	2	0	128404	9	127914	2	742	128656
TRSEscan	107	4	60.001	1	99582279	5/7/2010	15:57:29	1	BlockProc	SessionList	2	2	1	20	NULL	NULL	NULL	NULL	20	2	20	Faces	NULL	NULL	NULL	Both	1	4390	0	135804	10	131514	1	NULL	NULL	face/m_048.bmp	NULL	NULL	NULL	NULL	NULL	NULL	Novel	SSFSSSFSFSSFFSFFFSFF	NULL	NULL	NULL	TrialProc	Relevant	BlockList	1	1	0	131404	10	130914	1	814	131728
TRSEscan	107	4	60.001	1	99582279	5/7/2010	15:57:29	1	BlockProc	SessionList	2	2	1	21	NULL	NULL	NULL	NULL	21	2	21	Faces	NULL	NULL	NULL	Both	2	6390	0	142804	10	136514	0	NULL	NULL	face/m_048.bmp	NULL	NULL	NULL	NULL	NULL	NULL	Repeat	SSFSSSFSFSSFFSFFFSFF	NULL	NULL	NULL	TrialProc	Relevant	BlockList	1	2	0	136404	10	135914	2	686	136600
TRSEscan	107	4	60.001	1	99582279	5/7/2010	15:57:29	1	BlockProc	SessionList	2	2	1	22	NULL	NULL	NULL	NULL	22	2	22		NULL	NULL	NULL	Both			NULL	NULL	NULL	NULL		157804	155914		NULL	NULL	NULL	NULL	NULL	NULL			NULL	NULL	NULL	FeedbackProc		BlockList	NULL	NULL	NULL	NULL	NULL	NULL	NULL	NULL	NULL
TRSEscan	107	4	60.001	1	99582279	5/7/2010	15:57:29	2	BlockProc	SessionList	2	2	2	1	-999999	159648	10	157914	1	3	23		1	2	1024	Faces			NULL	NULL	NULL	NULL		NULL	NULL		179687	1	161698	0	180687	179697			0	182587	180697	InstrProc		BlockList	NULL	NULL	NULL	NULL	NULL	NULL	NULL	NULL	NULL
TRSEscan	107	4	60.001	1	99582279	5/7/2010	15:57:29	2	BlockProc	SessionList	2	2	2	2	NULL	NULL	NULL	NULL	2	3	24	Scenes	NULL	NULL	NULL	Faces	1	2390	0	185587	10	183297	0	NULL	NULL	scene/s_024.bmp	NULL	NULL	NULL	NULL	NULL	NULL	Novel	SSFSSSFSFSSFFSFFFSFF	NULL	NULL	NULL	TrialProc	Irrelevant	BlockList	0	1	0	183187	10	182697		0	0
TRSEscan	107	4	60.001	1	99582279	5/7/2010	15:57:29	2	BlockProc	SessionList	2	2	2	3	NULL	NULL	NULL	NULL	3	3	25	Scenes	NULL	NULL	NULL	Faces	1	4390	0	190587	10	186297	0	NULL	NULL	scene/s_024.bmp	NULL	NULL	NULL	NULL	NULL	NULL	Repeat	SSFSSSFSFSSFFSFFFSFF	NULL	NULL	NULL	TrialProc	Irrelevant	BlockList	1	1	0	186187	10	185697	1	590	186287
TRSEscan	107	4	60.001	1	99582279	5/7/2010	15:57:29	2	BlockProc	SessionList	2	2	2	4	NULL	NULL	NULL	NULL	4	3	26	Faces	NULL	NULL	NULL	Faces	1	6390	0	197586	10	191296	2	NULL	NULL	face/m_095.bmp	NULL	NULL	NULL	NULL	NULL	NULL	Novel	SSFSSSFSFSSFFSFFFSFF	NULL	NULL	NULL	TrialProc	Relevant	BlockList	1	1	0	191186	9	190696	1	663	191359
TRSEscan	107	4	60.001	1	99582279	5/7/2010	15:57:29	2	BlockProc	SessionList	2	2	2	5	NULL	NULL	NULL	NULL	5	3	27	Scenes	NULL	NULL	NULL	Faces	1	4390	0	202586	10	198296	1	NULL	NULL	scene/s_024.bmp	NULL	NULL	NULL	NULL	NULL	NULL	Repeat	SSFSSSFSFSSFFSFFFSFF	NULL	NULL	NULL	TrialProc	Irrelevant	BlockList	1	1	0	198186	10	197696	1	895	198591
TRSEscan	107	4	60.001	1	99582279	5/7/2010	15:57:29	2	BlockProc	SessionList	2	2	2	6	NULL	NULL	NULL	NULL	6	3	28	Scenes	NULL	NULL	NULL	Faces	1	2390	0	205586	10	203296	0	NULL	NULL	scene/s_396.bmp	NULL	NULL	NULL	NULL	NULL	NULL	Novel	SSFSSSFSFSSFFSFFFSFF	NULL	NULL	NULL	TrialProc	Irrelevant	BlockList	1	1	0	203186	10	202696	1	1007	203703
TRSEscan	107	4	60.001	1	99582279	5/7/2010	15:57:29	2	BlockProc	SessionList	2	2	2	7	NULL	NULL	NULL	NULL	7	3	29	Scenes	NULL	NULL	NULL	Faces	1	4390	0	210586	10	206296	0	NULL	NULL	scene/s_430.bmp	NULL	NULL	NULL	NULL	NULL	NULL	Novel	SSFSSSFSFSSFFSFFFSFF	NULL	NULL	NULL	TrialProc	Irrelevant	BlockList	1	1	0	206186	10	205696	1	463	206159
TRSEscan	107	4	60.001	1	99582279	5/7/2010	15:57:29	2	BlockProc	SessionList	2	2	2	8	NULL	NULL	NULL	NULL	8	3	30	Faces	NULL	NULL	NULL	Faces	2	2390	0	213586	10	211296	3	NULL	NULL	face/m_095.bmp	NULL	NULL	NULL	NULL	NULL	NULL	Repeat	SSFSSSFSFSSFFSFFFSFF	NULL	NULL	NULL	TrialProc	Relevant	BlockList	1	2	0	211186	10	210696	2	1439	212135
TRSEscan	107	4	60.001	1	99582279	5/7/2010	15:57:29	2	BlockProc	SessionList	2	2	2	9	NULL	NULL	NULL	NULL	9	3	31	Scenes	NULL	NULL	NULL	Faces	1	6390	0	220586	10	214296	1	NULL	NULL	scene/s_430.bmp	NULL	NULL	NULL	NULL	NULL	NULL	Repeat	SSFSSSFSFSSFFSFFFSFF	NULL	NULL	NULL	TrialProc	Irrelevant	BlockList	1	1	0	214186	10	213696	1	495	214191
TRSEscan	107	4	60.001	1	99582279	5/7/2010	15:57:29	2	BlockProc	SessionList	2	2	2	10	NULL	NULL	NULL	NULL	10	3	32	Faces	NULL	NULL	NULL	Faces	2	4390	0	225586	10	221296	1	NULL	NULL	face/m_095.bmp	NULL	NULL	NULL	NULL	NULL	NULL	Repeat	SSFSSSFSFSSFFSFFFSFF	NULL	NULL	NULL	TrialProc	Relevant	BlockList	1	2	0	221186	10	220696	2	678	221374
TRSEscan	107	4	60.001	1	99582279	5/7/2010	15:57:29	2	BlockProc	SessionList	2	2	2	11	NULL	NULL	NULL	NULL	11	3	33	Scenes	NULL	NULL	NULL	Faces	1	6390	0	232586	10	226296	1	NULL	NULL	scene/s_271.bmp	NULL	NULL	NULL	NULL	NULL	NULL	Novel	SSFSSSFSFSSFFSFFFSFF	NULL	NULL	NULL	TrialProc	Irrelevant	BlockList	1	1	0	226186	10	225696	1	758	226454
TRSEscan	107	4	60.001	1	99582279	5/7/2010	15:57:29	2	BlockProc	SessionList	2	2	2	12	NULL	NULL	NULL	NULL	12	3	34	Scenes	NULL	NULL	NULL	Faces	1	2390	0	235586	10	233296	0	NULL	NULL	scene/s_216.bmp	NULL	NULL	NULL	NULL	NULL	NULL	Novel	SSFSSSFSFSSFFSFFFSFF	NULL	NULL	NULL	TrialProc	Irrelevant	BlockList	1	1	0	233186	10	232696	1	654	233350
TRSEscan	107	4	60.001	1	99582279	5/7/2010	15:57:29	2	BlockProc	SessionList	2	2	2	13	NULL	NULL	NULL	NULL	13	3	35	Faces	NULL	NULL	NULL	Faces	1	2390	0	238585	9	236295	2	NULL	NULL	face/m_146.bmp	NULL	NULL	NULL	NULL	NULL	NULL	Novel	SSFSSSFSFSSFFSFFFSFF	NULL	NULL	NULL	TrialProc	Relevant	BlockList	1	1	0	236186	10	235696	1	630	236326
TRSEscan	107	4	60.001	1	99582279	5/7/2010	15:57:29	2	BlockProc	SessionList	2	2	2	14	NULL	NULL	NULL	NULL	14	3	36	Faces	NULL	NULL	NULL	Faces	1	6390	0	245585	10	239295	0	NULL	NULL	face/m_010.bmp	NULL	NULL	NULL	NULL	NULL	NULL	Novel	SSFSSSFSFSSFFSFFFSFF	NULL	NULL	NULL	TrialProc	Relevant	BlockList	1	1	0	239185	10	238695	1	575	239270
