ExperimentName	Subject	Session	Display.RefreshRate	Group	RandomSeed	SessionDate	SessionTime	Block	Procedure[Block]	Running[Block]	SessionList	SessionList.Cycle	SessionList.Sample	Trial	BlockInstr.OffsetDelay	BlockInstr.OffsetTime	BlockInstr.OnsetDelay	BlockInstr.OnsetTime	BlockList	BlockList.Cycle	BlockList.Sample	Category	Challenge.ACC	Challenge.RESP	Challenge.RT	Condition	CorrResp	Delay	DelayFixation.OffsetDelay	DelayFixation.OffsetTime	DelayFixation.OnsetDelay	DelayFixation.OnsetTime	Distractors	Feedback.OffsetTime	Feedback.OnsetTime	Filename	GetReady.OffsetTime	GetReady.OnsetDelay	GetReady.OnsetTime	Go.OffsetDelay	Go.OffsetTime	Go.OnsetTime	Novelty	Permutation	PostGoFixation.OffsetDelay	PostGoFixation.OffsetTime	PostGoFixation.OnsetTime	Procedure[Trial]	Relevance	Running[Trial]	Stim.ACC	Stim.CRESP	Stim.OffsetDelay	Stim.OffsetTime	Stim.OnsetDelay	Stim.OnsetTime	Stim.RESP	Stim.RT	Stim.RTTime
TRSEscan	1091	1	60.001	1	-1398917858	7/15/2010	18:55:34	1	BlockProc	SessionList	2	1	2	1	-999999	73583	14	71045	1	2	1		1	2	2468	Faces			NULL	NULL	NULL	NULL		NULL	NULL		127302	1	77079	0	128301	127311			0	130201	128311	InstrProc		BlockList	NULL	NULL	NULL	NULL	NULL	NULL	NULL	NULL	NULL
TRSEscan	1091	1	60.001	1	-1398917858	7/15/2010	18:55:34	1	BlockProc	SessionList	2	1	2	2	NULL	NULL	NULL	NULL	2	2	2	Scenes	NULL	NULL	NULL	Faces	1	4390	0	135201	10	130911	0	NULL	NULL	scene/s_364.bmp	NULL	NULL	NULL	NULL	NULL	NULL	Novel	SFFSFSSSFSSFSSFFFSFF	NULL	NULL	NULL	TrialProc	Irrelevant	BlockList	1	1	0	130801	10	130311	1	319	130630
TRSEscan	1091	1	60.001	1	-1398917858	7/15/2010	18:55:34	1	BlockProc	SessionList	2	1	2	3	NULL	NULL	NULL	NULL	3	2	3	Faces	NULL	NULL	NULL	Faces	1	2390	0	138201	10	135911	1	NULL	NULL	face/m_120.bmp	NULL	NULL	NULL	NULL	NULL	NULL	Novel	SFFSFSSSFSSFSSFFFSFF	NULL	NULL	NULL	TrialProc	Relevant	BlockList	1	1	0	135801	10	135311	1	279	135590
TRSEscan	1091	1	60.001	1	-1398917858	7/15/2010	18:55:34	1	BlockProc	SessionList	2	1	2	4	NULL	NULL	NULL	NULL	4	2	4	Faces	NULL	NULL	NULL	Faces	1	2390	0	141201	10	138911	0	NULL	NULL	face/m_014.bmp	NULL	NULL	NULL	NULL	NULL	NULL	Novel	SFFSFSSSFSSFSSFFFSFF	NULL	NULL	NULL	TrialProc	Relevant	BlockList	1	1	0	138801	10	138311	1	911	139222
TRSEscan	1091	1	60.001	1	-1398917858	7/15/2010	18:55:34	1	BlockProc	SessionList	2	1	2	5	NULL	NULL	NULL	NULL	5	2	5	Scenes	NULL	NULL	NULL	Faces	1	4390	0	146201	10	141911	2	NULL	NULL	scene/s_200.bmp	NULL	NULL	NULL	NULL	NULL	NULL	Novel	SFFSFSSSFSSFSSFFFSFF	NULL	NULL	NULL	TrialProc	Irrelevant	BlockList	1	1	0	141801	10	141311	1	639	141950
TRSEscan	1091	1	60.001	1	-1398917858	7/15/2010	18:55:34	1	BlockProc	SessionList	2	1	2	6	NULL	NULL	NULL	NULL	6	2	6	Faces	NULL	NULL	NULL	Faces	2	6390	0	153201	10	146911	1	NULL	NULL	face/m_014.bmp	NULL	NULL	NULL	NULL	NULL	NULL	Repeat	SFFSFSSSFSSFSSFFFSFF	NULL	NULL	NULL	TrialProc	Relevant	BlockList	1	2	0	146801	10	146311	2	839	147150
TRSEscan	1091	1	60.001	1	-1398917858	7/15/2010	18:55:34	1	BlockProc	SessionList	2	1	2	7	NULL	NULL	NULL	NULL	7	2	7	Scenes	NULL	NULL	NULL	Faces	1	6390	0	160201	10	153911	1	NULL	NULL	scene/s_200.bmp	NULL	NULL	NULL	NULL	NULL	NULL	Repeat	SFFSFSSSFSSFSSFFFSFF	NULL	NULL	NULL	TrialProc	Irrelevant	BlockList	1	1	0	153801	10	153311	1	591	153902
TRSEscan	1091	1	60.001	1	-1398917858	7/15/2010	18:55:34	1	BlockProc	SessionList	2	1	2	8	NULL	NULL	NULL	NULL	8	2	8	Scenes	NULL	NULL	NULL	Faces	1	4390	0	165201	10	160911	0	NULL	NULL	scene/s_004.bmp	NULL	NULL	NULL	NULL	NULL	NULL	Novel	SFFSFSSSFSSFSSFFFSFF	NULL	NULL	NULL	TrialProc	Irrelevant	BlockList	1	1	0	160801	10	160311	1	631	160942
TRSEscan	1091	1	60.001	1	-1398917858	7/15/2010	18:55:34	1	BlockProc	SessionList	2	1	2	9	NULL	NULL	NULL	NULL	9	2	9	Scenes	NULL	NULL	NULL	Faces	1	2390	0	168201	10	165911	0	NULL	NULL	scene/s_004.bmp	NULL	NULL	NULL	NULL	NULL	NULL	Repeat	SFFSFSSSFSSFSSFFFSFF	NULL	NULL	NULL	TrialProc	Irrelevant	BlockList	1	1	0	165801	10	165311	1	495	165806
TRSEscan	1091	1	60.001	1	-1398917858	7/15/2010	18:55:34	1	BlockProc	SessionList	2	1	2	10	NULL	NULL	NULL	NULL	10	2	10	Faces	NULL	NULL	NULL	Faces	1	4390	0	173200	10	168910	3	NULL	NULL	face/f_038.bmp	NULL	NULL	NULL	NULL	NULL	NULL	Novel	SFFSFSSSFSSFSSFFFSFF	NULL	NULL	NULL	TrialProc	Relevant	BlockList	1	1	0	168800	9	168310	1	792	169102
TRSEscan	1091	1	60.001	1	-1398917858	7/15/2010	18:55:34	1	BlockProc	SessionList	2	1	2	11	NULL	NULL	NULL	NULL	11	2	11	Scenes	NULL	NULL	NULL	Faces	1	6390	0	180200	10	173910	1	NULL	NULL	scene/s_004.bmp	NULL	NULL	NULL	NULL	NULL	NULL	Repeat	SFFSFSSSFSSFSSFFFSFF	NULL	NULL	NULL	TrialProc	Irrelevant	BlockList	1	1	0	173800	10	173310	1	760	174070
TRSEscan	1091	1	60.001	1	-1398917858	7/15/2010	18:55:34	1	BlockProc	SessionList	2	1	2	12	NULL	NULL	NULL	NULL	12	2	12	Scenes	NULL	NULL	NULL	Faces	1	2390	0	183200	10	180910	0	NULL	NULL	scene/s_020.bmp	NULL	NULL	NULL	NULL	NULL	NULL	Novel	SFFSFSSSFSSFSSFFFSFF	NULL	NULL	NULL	TrialProc	Irrelevant	BlockList	1	1	0	180800	10	180310	1	528	180838
TRSEscan	1091	1	60.001	1	-1398917858	7/15/2010	18:55:34	1	BlockProc	SessionList	2	1	2	13	NULL	NULL	NULL	NULL	13	2	13	Faces	NULL	NULL	NULL	Faces	2	4390	0	188200	10	183910	2	NULL	NULL	face/f_038.bmp	NULL	NULL	NULL	NULL	NULL	NULL	Repeat	SFFSFSSSFSSFSSFFFSFF	NULL	NULL	NULL	TrialProc	Relevant	BlockList	1	2	0	183800	10	183310	2	944	184254
TRSEscan	1091	1	60.001	1	-1398917858	7/15/2010	18:55:34	1	BlockProc	SessionList	2	1	2	14	NULL	NULL	NULL	NULL	14	2	14	Scenes	NULL	NULL	NULL	Faces	1	2390	0	191200	10	188910	1	NULL	NULL	scene/s_020.bmp	NULL	NULL	NULL	NULL	NULL	NULL	Repeat	SFFSFSSSFSSFSSFFFSFF	NULL	NULL	NULL	TrialProc	Irrelevant	BlockList	1	1	0	188800	10	188310	1	552	188862
TRSEscan	1091	1	60.001	1	-1398917858	7/15/2010	18:55:34	1	BlockProc	SessionList	2	1	2	15	NULL	NULL	NULL	NULL	15	2	15	Scenes	NULL	NULL	NULL	Faces	1	6390	0	198200	10	191910	0	NULL	NULL	scene/s_442.bmp	NULL	NULL	NULL	NULL	NULL	NULL	Novel	SFFSFSSSFSSFSSFFFSFF	NULL	NULL	NULL	TrialProc	Irrelevant	BlockList	1	1	0	191800	10	191310	1	672	191982
TRSEscan	1091	1	60.001	1	-1398917858	7/15/2010	18:55:34	1	BlockProc	SessionList	2	1	2	16	NULL	NULL	NULL	NULL	16	2	16	Faces	NULL	NULL	NULL	Faces	2	6390	0	205200	10	198910	2	NULL	NULL	face/f_038.bmp	NULL	NULL	NULL	NULL	NULL	NULL	Repeat	SFFSFSSSFSSFSSFFFSFF	NULL	NULL	NULL	TrialProc	Relevant	BlockList	1	2	0	198800	10	198310	2	751	199061
TRSEscan	1091	1	60.001	1	-1398917858	7/15/2010	18:55:34	1	BlockProc	SessionList	2	1	2	17	NULL	NULL	NULL	NULL	17	2	17	Faces	NULL	NULL	NULL	Faces	1	2390	0	208200	10	205910	0	NULL	NULL	face/f_012.bmp	NULL	NULL	NULL	NULL	NULL	NULL	Novel	SFFSFSSSFSSFSSFFFSFF	NULL	NULL	NULL	TrialProc	Relevant	BlockList	1	1	0	205800	10	205310	1	671	205981
TRSEscan	1091	1	60.001	1	-1398917858	7/15/2010	18:55:34	1	BlockProc	SessionList	2	1	2	18	NULL	NULL	NULL	NULL	18	2	18	Faces	NULL	NULL	NULL	Faces	2	4390	0	213200	10	208910	0	NULL	NULL	face/f_012.bmp	NULL	NULL	NULL	NULL	NULL	NULL	Repeat	SFFSFSSSFSSFSSFFFSFF	NULL	NULL	NULL	TrialProc	Relevant	BlockList	1	2	0	208800	10	208310	2	759	209069
TRSEscan	1091	1	60.001	1	-1398917858	7/15/2010	18:55:34	1	BlockProc	SessionList	2	1	2	19	NULL	NULL	NULL	NULL	19	2	19	Scenes	NULL	NULL	NULL	Faces	1	2390	0	216200	10	213910	3	NULL	NULL	scene/s_404.bmp	NULL	NULL	NULL	NULL	NULL	NULL	Novel	SFFSFSSSFSSFSSFFFSFF	NULL	NULL	NULL	TrialProc	Irrelevant	BlockList	1	1	0	213800	10	213310	1	623	213933
TRSEscan	1091	1	60.001	1	-1398917858	7/15/2010	18:55:34	1	BlockProc	SessionList	2	1	2	20	NULL	NULL	NULL	NULL	20	2	20	Faces	NULL	NULL	NULL	Faces	1	6390	0	223200	10	216910	1	NULL	NULL	face/f_030.bmp	NULL	NULL	NULL	NULL	NULL	NULL	Novel	SFFSFSSSFSSFSSFFFSFF	NULL	NULL	NULL	TrialProc	Relevant	BlockList	1	1	0	216800	10	216310	1	1055	217365
TRSEscan	1091	1	60.001	1	-1398917858	7/15/2010	18:55:34	1	BlockProc	SessionList	2	1	2	21	NULL	NULL	NULL	NULL	21	2	21	Faces	NULL	NULL	NULL	Faces	1	4390	0	228200	10	223910	0	NULL	NULL	face/m_116.bmp	NULL	NULL	NULL	NULL	NULL	NULL	Novel	SFFSFSSSFSSFSSFFFSFF	NULL	NULL	NULL	TrialProc	Relevant	BlockList	1	1	0	223800	10	223310	1	1271	224581
TRSEscan	1091	1	60.001	1	-1398917858	7/15/2010	18:55:34	1	BlockProc	SessionList	2	1	2	22	NULL	NULL	NULL	NULL	22	2	22		NULL	NULL	NULL	Faces			NULL	NULL	NULL	NULL		243200	241310		NULL	NULL	NULL	NULL	NULL	NULL			NULL	NULL	NULL	FeedbackProc		BlockList	NULL	NULL	NULL	NULL	NULL	NULL	NULL	NULL	NULL
TRSEscan	1091	1	60.001	1	-1398917858	7/15/2010	18:55:34	2	BlockProc	SessionList	2	1	3	1	-999999	245461	9	243309	1	3	23		1	2	2569	Scenes			NULL	NULL	NULL	NULL		NULL	NULL		271405	1	249060	0	272399	271409			0	274299	272409	InstrProc		BlockList	NULL	NULL	NULL	NULL	NULL	NULL	NULL	NULL	NULL
TRSEscan	1091	1	60.001	1	-1398917858	7/15/2010	18:55:34	2	BlockProc	SessionList	2	1	3	2	NULL	NULL	NULL	NULL	2	3	24	Scenes	NULL	NULL	NULL	Scenes	1	4390	0	279299	10	275009	0	NULL	NULL	scene/s_325.bmp	NULL	NULL	NULL	NULL	NULL	NULL	Novel	SFFSFSSSFSSFSSFFFSFF	NULL	NULL	NULL	TrialProc	Relevant	BlockList	1	1	0	274899	10	274409	1	331	274740
TRSEscan	1091	1	60.001	1	-1398917858	7/15/2010	18:55:34	2	BlockProc	SessionList	2	1	3	3	NULL	NULL	NULL	NULL	3	3	25	Faces	NULL	NULL	NULL	Scenes	1	2390	0	282299	10	280009	1	NULL	NULL	face/f_114.bmp	NULL	NULL	NULL	NULL	NULL	NULL	Novel	SFFSFSSSFSSFSSFFFSFF	NULL	NULL	NULL	TrialProc	Irrelevant	BlockList	1	1	0	279899	10	279409	1	387	279796
TRSEscan	1091	1	60.001	1	-1398917858	7/15/2010	18:55:34	2	BlockProc	SessionList	2	1	3	4	NULL	NULL	NULL	NULL	4	3	26	Faces	NULL	NULL	NULL	Scenes	1	2390	0	285299	10	283009	0	NULL	NULL	face/f_036.bmp	NULL	NULL	NULL	NULL	NULL	NULL	Novel	SFFSFSSSFSSFSSFFFSFF	NULL	NULL	NULL	TrialProc	Irrelevant	BlockList	1	1	0	282899	10	282409	1	419	282828
TRSEscan	1091	1	60.001	1	-1398917858	7/15/2010	18:55:34	2	BlockProc	SessionList	2	1	3	5	NULL	NULL	NULL	NULL	5	3	27	Scenes	NULL	NULL	NULL	Scenes	1	4390	0	290299	10	286009	2	NULL	NULL	scene/s_189.bmp	NULL	NULL	NULL	NULL	NULL	NULL	Novel	SFFSFSSSFSSFSSFFFSFF	NULL	NULL	NULL	TrialProc	Relevant	BlockList	1	1	0	285899	10	285409	1	1355	286764
TRSEscan	1091	1	60.001	1	-1398917858	7/15/2010	18:55:34	2	BlockProc	SessionList	2	1	3	6	NULL	NULL	NULL	NULL	6	3	28	Faces	NULL	NULL	NULL	Scenes	1	6390	0	297299	10	291009	1	NULL	NULL	face/f_036.bmp	NULL	NULL	NULL	NULL	NULL	NULL	Repeat	SFFSFSSSFSSFSSFFFSFF	NULL	NULL	NULL	TrialProc	Irrelevant	BlockList	1	1	0	290899	10	290409	1	739	291148
TRSEscan	1091	1	60.001	1	-1398917858	7/15/2010	18:55:34	2	BlockProc	SessionList	2	1	3	7	NULL	NULL	NULL	NULL	7	3	29	Scenes	NULL	NULL	NULL	Scenes	2	6390	0	304299	10	298009	1	NULL	NULL	scene/s_189.bmp	NULL	NULL	NULL	NULL	NULL	NULL	Repeat	SFFSFSSSFSSFSSFFFSFF	NULL	NULL	NULL	TrialProc	Relevant	BlockList	1	2	0	297899	10	297409	2	787	298196
TRSEscan	1091	1	60.001	1	-1398917858	7/15/2010	18:55:34	2	BlockProc	SessionList	2	1	3	8	NULL	NULL	NULL	NULL	8	3	30	Scenes	NULL	NULL	NULL	Scenes	1	4390	0	309299	10	305009	0	NULL	NULL	scene/s_409.bmp	NULL	NULL	NULL	NULL	NULL	NULL	Novel	SFFSFSSSFSSFSSFFFSFF	NULL	NULL	NULL	TrialProc	Relevant	BlockList	1	1	0	304899	10	304409	1	659	305068
TRSEscan	1091	1	60.001	1	-1398917858	7/15/2010	18:55:34	2	BlockProc	SessionList	2	1	3	9	NULL	NULL	NULL	NULL	9	3	31	Scenes	NULL	NULL	NULL	Scenes	2	2390	0	312299	10	310009	0	NULL	NULL	scene/s_409.bmp	NULL	NULL	NULL	NULL	NULL	NULL	Repeat	SFFSFSSSFSSFSSFFFSFF	NULL	NULL	NULL	TrialProc	Relevant	BlockList	1	2	0	309899	10	309409	2	739	310148
TRSEscan	1091	1	60.001	1	-1398917858	7/15/2010	18:55:34	2	BlockProc	SessionList	2	1	3	10	NULL	NULL	NULL	NULL	10	3	32	Faces	NULL	NULL	NULL	Scenes	1	4390	0	317299	10	313009	3	NULL	NULL	face/f_112.bmp	NULL	NULL	NULL	NULL	NULL	NULL	Novel	SFFSFSSSFSSFSSFFFSFF	NULL	NULL	NULL	TrialProc	Irrelevant	BlockList	1	1	0	312899	10	312409	1	779	313188
TRSEscan	1091	1	60.001	1	-1398917858	7/15/2010	18:55:34	2	BlockProc	SessionList	2	1	3	11	NULL	NULL	NULL	NULL	11	3	33	Scenes	NULL	NULL	NULL	Scenes	2	6390	0	324298	10	318008	1	NULL	NULL	scene/s_409.bmp	NULL	NULL	NULL	NULL	NULL	NULL	Repeat	SFFSFSSSFSSFSSFFFSFF	NULL	NULL	NULL	TrialProc	Relevant	BlockList	1	2	0	317898	9	317408	2	764	318172
TRSEscan	1091	1	60.001	1	-1398917858	7/15/2010	18:55:34	2	BlockProc	SessionList	2	1	3	12	NULL	NULL	NULL	NULL	12	3	34	Scenes	NULL	NULL	NULL	Scenes	1	2390	0	327298	10	325008	0	NULL	NULL	scene/s_371.bmp	NULL	NULL	NULL	NULL	NULL	NULL	Novel	SFFSFSSSFSSFSSFFFSFF	NULL	NULL	NULL	TrialProc	Relevant	BlockList	1	1	0	324898	10	324408	1	828	325236
TRSEscan	1091	1	60.001	1	-1398917858	7/15/2010	18:55:34	2	BlockProc	SessionList	2	1	3	13	NULL	NULL	NULL	NULL	13	3	35	Faces	NULL	NULL	NULL	Scenes	1	4390	0	332298	10	328008	2	NULL	NULL	face/f_112.bmp	NULL	NULL	NULL	NULL	NULL	NULL	Repeat	SFFSFSSSFSSFSSFFFSFF	NULL	NULL	NULL	TrialProc	Irrelevant	BlockList	1	1	0	327898	10	327408	1	548	327956
TRSEscan	1091	1	60.001	1	-1398917858	7/15/2010	18:55:34	2	BlockProc	SessionList	2	1	3	14	NULL	NULL	NULL	NULL	14	3	36	Scenes	NULL	NULL	NULL	Scenes	2	2390	0	335298	10	333008	1	NULL	NULL	scene/s_371.bmp	NULL	NULL	NULL	NULL	NULL	NULL	Repeat	SFFSFSSSFSSFSSFFFSFF	NULL	NULL	NULL	TrialProc	Relevant	BlockList	1	2	0	332898	10	332408	2	868	333276
TRSEscan	1091	1	60.001	1	-1398917858	7/15/2010	18:55:34	2	BlockProc	SessionList	2	1	3	15	NULL	NULL	NULL	NULL	15	3	37	Scenes	NULL	NULL	NULL	Scenes	1	6390	0	342298	10	336008	0	NULL	NULL	scene/s_136.bmp	NULL	NULL	NULL	NULL	NULL	NULL	Novel	SFFSFSSSFSSFSSFFFSFF	NULL	NULL	NULL	TrialProc	Relevant	BlockList	1	1	0	335898	10	335408	1	836	336244
TRSEscan	1091	1	60.001	1	-1398917858	7/15/2010	18:55:34	2	BlockProc	SessionList	2	1	3	16	NULL	NULL	NULL	NULL	16	3	38	Faces	NULL	NULL	NULL	Scenes	1	6390	0	349298	10	343008	2	NULL	NULL	face/f_112.bmp	NULL	NULL	NULL	NULL	NULL	NULL	Repeat	SFFSFSSSFSSFSSFFFSFF	NULL	NULL	NULL	TrialProc	Irrelevant	BlockList	1	1	0	342898	10	342408	1	372	342780
TRSEscan	1091	1	60.001	1	-1398917858	7/15/2010	18:55:34	2	BlockProc	SessionList	2	1	3	17	NULL	NULL	NULL	NULL	17	3	39	Faces	NULL	NULL	NULL	Scenes	1	2390	0	352298	10	350008	0	NULL	NULL	face/m_135.bmp	NULL	NULL	NULL	NULL	NULL	NULL	Novel	SFFSFSSSFSSFSSFFFSFF	NULL	NULL	NULL	TrialProc	Irrelevant	BlockList	1	1	0	349898	10	349408	1	587	349995
TRSEscan	1091	1	60.001	1	-1398917858	7/15/2010	18:55:34	2	BlockProc	SessionList	2	1	3	18	NULL	NULL	NULL	NULL	18	3	40	Faces	NULL	NULL	NULL	Scenes	1	4390	0	357298	10	353008	0	NULL	NULL	face/m_135.bmp	NULL	NULL	NULL	NULL	NULL	NULL	Repeat	SFFSFSSSFSSFSSFFFSFF	NULL	NULL	NULL	TrialProc	Irrelevant	BlockList	1	1	0	352898	10	352408	1	555	352963
TRSEscan	1091	1	60.001	1	-1398917858	7/15/2010	18:55:34	2	BlockProc	SessionList	2	1	3	19	NULL	NULL	NULL	NULL	19	3	41	Scenes	NULL	NULL	NULL	Scenes	1	2390	0	360298	10	358008	3	NULL	NULL	scene/s_378.bmp	NULL	NULL	NULL	NULL	NULL	NULL	Novel	SFFSFSSSFSSFSSFFFSFF	NULL	NULL	NULL	TrialProc	Relevant	BlockList	1	1	0	357898	10	357408	1	843	358251
TRSEscan	1091	1	60.001	1	-1398917858	7/15/2010	18:55:34	2	BlockProc	SessionList	2	1	3	20	NULL	NULL	NULL	NULL	20	3	42	Faces	NULL	NULL	NULL	Scenes	1	6390	0	367298	10	361008	1	NULL	NULL	face/m_053.bmp	NULL	NULL	NULL	NULL	NULL	NULL	Novel	SFFSFSSSFSSFSSFFFSFF	NULL	NULL	NULL	TrialProc	Irrelevant	BlockList	1	1	0	360898	10	360408	1	635	361043
TRSEscan	1091	1	60.001	1	-1398917858	7/15/2010	18:55:34	2	BlockProc	SessionList	2	1	3	21	NULL	NULL	NULL	NULL	21	3	43	Faces	NULL	NULL	NULL	Scenes	1	4390	0	372298	10	368008	0	NULL	NULL	face/f_145.bmp	NULL	NULL	NULL	NULL	NULL	NULL	Novel	SFFSFSSSFSSFSSFFFSFF	NULL	NULL	NULL	TrialProc	Irrelevant	BlockList	1	1	0	367898	10	367408	1	579	367987
TRSEscan	1091	1	60.001	1	-1398917858	7/15/2010	18:55:34	2	BlockProc	SessionList	2	1	3	22	NULL	NULL	NULL	NULL	22	3	44		NULL	NULL	NULL	Scenes			NULL	NULL	NULL	NULL		387298	385408		NULL	NULL	NULL	NULL	NULL	NULL			NULL	NULL	NULL	FeedbackProc		BlockList	NULL	NULL	NULL	NULL	NULL	NULL	NULL	NULL	NULL
TRSEscan	1091	1	60.001	1	-1398917858	7/15/2010	18:55:34	3	BlockProc	SessionList	2	1	4	1	-999999	393915	10	387408	1	4	45		1	2	2399	Categorize			NULL	NULL	NULL	NULL		NULL	NULL		408731	1	397325	0	409731	408741			0	411631	409741	InstrProc		BlockList	NULL	NULL	NULL	NULL	NULL	NULL	NULL	NULL	NULL
TRSEscan	1091	1	60.001	1	-1398917858	7/15/2010	18:55:34	3	BlockProc	SessionList	2	1	4	2	NULL	NULL	NULL	NULL	2	4	46	Scenes	NULL	NULL	NULL	Categorize	2	4390	0	416630	9	412340	0	NULL	NULL	scene/s_301.bmp	NULL	NULL	NULL	NULL	NULL	NULL	Novel	SFFSFSSSFSSFSSFFFSFF	NULL	NULL	NULL	TrialProc	Irrelevant	BlockList	1	2	0	412231	10	411741	2	1045	412786
TRSEscan	1091	1	60.001	1	-1398917858	7/15/2010	18:55:34	3	BlockProc	SessionList	2	1	4	3	NULL	NULL	NULL	NULL	3	4	47	Faces	NULL	NULL	NULL	Categorize	1	2390	0	419630	10	417340	1	NULL	NULL	face/m_055.bmp	NULL	NULL	NULL	NULL	NULL	NULL	Novel	SFFSFSSSFSSFSSFFFSFF	NULL	NULL	NULL	TrialProc	Irrelevant	BlockList	1	1	0	417230	10	416740	1	318	417058
TRSEscan	1091	1	60.001	1	-1398917858	7/15/2010	18:55:34	3	BlockProc	SessionList	2	1	4	4	NULL	NULL	NULL	NULL	4	4	48	Faces	NULL	NULL	NULL	Categorize	1	2390	0	422630	10	420340	0	NULL	NULL	face/m_129.bmp	NULL	NULL	NULL	NULL	NULL	NULL	Novel	SFFSFSSSFSSFSSFFFSFF	NULL	NULL	NULL	TrialProc	Irrelevant	BlockList	1	1	0	420230	10	419740	1	534	420274
TRSEscan	1091	1	60.001	1	-1398917858	7/15/2010	18:55:34	3	BlockProc	SessionList	2	1	4	5	NULL	NULL	NULL	NULL	5	4	49	Scenes	NULL	NULL	NULL	Categorize	2	4390	0	427630	10	423340	2	NULL	NULL	scene/s_141.bmp	NULL	NULL	NULL	NULL	NULL	NULL	Novel	SFFSFSSSFSSFSSFFFSFF	NULL	NULL	NULL	TrialProc	Irrelevant	BlockList	1	2	0	423230	10	422740	2	566	423306
TRSEscan	1091	1	60.001	1	-1398917858	7/15/2010	18:55:34	3	BlockProc	SessionList	2	1	4	6	NULL	NULL	NULL	NULL	6	4	50	Faces	NULL	NULL	NULL	Categorize	1	6390	0	434630	10	428340	1	NULL	NULL	face/m_129.bmp	NULL	NULL	NULL	NULL	NULL	NULL	Repeat	SFFSFSSSFSSFSSFFFSFF	NULL	NULL	NULL	TrialProc	Irrelevant	BlockList	1	1	0	428230	10	427740	1	590	428330
TRSEscan	1091	1	60.001	1	-1398917858	7/15/2010	18:55:34	3	BlockProc	SessionList	2	1	4	7	NULL	NULL	NULL	NULL	7	4	51	Scenes	NULL	NULL	NULL	Categorize	2	6390	0	441630	10	435340	1	NULL	NULL	scene/s_141.bmp	NULL	NULL	NULL	NULL	NULL	NULL	Repeat	SFFSFSSSFSSFSSFFFSFF	NULL	NULL	NULL	TrialProc	Irrelevant	BlockList	1	2	0	435230	10	434740	2	542	435282
TRSEscan	1091	1	60.001	1	-1398917858	7/15/2010	18:55:34	3	BlockProc	SessionList	2	1	4	8	NULL	NULL	NULL	NULL	8	4	52	Scenes	NULL	NULL	NULL	Categorize	2	4390	0	446630	10	442340	0	NULL	NULL	scene/s_264.bmp	NULL	NULL	NULL	NULL	NULL	NULL	Novel	SFFSFSSSFSSFSSFFFSFF	NULL	NULL	NULL	TrialProc	Irrelevant	BlockList	1	2	0	442230	10	441740	2	654	442394
TRSEscan	1091	1	60.001	1	-1398917858	7/15/2010	18:55:34	3	BlockProc	SessionList	2	1	4	9	NULL	NULL	NULL	NULL	9	4	53	Scenes	NULL	NULL	NULL	Categorize	2	2390	0	449630	10	447340	0	NULL	NULL	scene/s_264.bmp	NULL	NULL	NULL	NULL	NULL	NULL	Repeat	SFFSFSSSFSSFSSFFFSFF	NULL	NULL	NULL	TrialProc	Irrelevant	BlockList	1	2	0	447230	10	446740	2	550	447290
TRSEscan	1091	1	60.001	1	-1398917858	7/15/2010	18:55:34	3	BlockProc	SessionList	2	1	4	10	NULL	NULL	NULL	NULL	10	4	54	Faces	NULL	NULL	NULL	Categorize	1	4390	0	454630	10	450340	3	NULL	NULL	face/f_135.bmp	NULL	NULL	NULL	NULL	NULL	NULL	Novel	SFFSFSSSFSSFSSFFFSFF	NULL	NULL	NULL	TrialProc	Irrelevant	BlockList	1	1	0	450230	10	449740	1	638	450378
TRSEscan	1091	1	60.001	1	-1398917858	7/15/2010	18:55:34	3	BlockProc	SessionList	2	1	4	11	NULL	NULL	NULL	NULL	11	4	55	Scenes	NULL	NULL	NULL	Categorize	2	6390	0	461630	10	455340	1	NULL	NULL	scene/s_264.bmp	NULL	NULL	NULL	NULL	NULL	NULL	Repeat	SFFSFSSSFSSFSSFFFSFF	NULL	NULL	NULL	TrialProc	Irrelevant	BlockList	1	2	0	455230	10	454740	2	606	455346
TRSEscan	1091	1	60.001	1	-1398917858	7/15/2010	18:55:34	3	BlockProc	SessionList	2	1	4	12	NULL	NULL	NULL	NULL	12	4	56	Scenes	NULL	NULL	NULL	Categorize	2	2390	0	464630	10	462340	0	NULL	NULL	scene/s_063.bmp	NULL	NULL	NULL	NULL	NULL	NULL	Novel	SFFSFSSSFSSFSSFFFSFF	NULL	NULL	NULL	TrialProc	Irrelevant	BlockList	1	2	0	462230	10	461740	2	806	462546
TRSEscan	1091	1	60.001	1	-1398917858	7/15/2010	18:55:34	3	BlockProc	SessionList	2	1	4	13	NULL	NULL	NULL	NULL	13	4	57	Faces	NULL	NULL	NULL	Categorize	1	4390	0	469630	10	465340	2	NULL	NULL	face/f_135.bmp	NULL	NULL	NULL	NULL	NULL	NULL	Repeat	SFFSFSSSFSSFSSFFFSFF	NULL	NULL	NULL	TrialProc	Irrelevant	BlockList	1	1	0	465230	10	464740	1	614	465354
TRSEscan	1091	1	60.001	1	-1398917858	7/15/2010	18:55:34	3	BlockProc	SessionList	2	1	4	14	NULL	NULL	NULL	NULL	14	4	58	Scenes	NULL	NULL	NULL	Categorize	2	2390	0	472630	10	470340	1	NULL	NULL	scene/s_063.bmp	NULL	NULL	NULL	NULL	NULL	NULL	Repeat	SFFSFSSSFSSFSSFFFSFF	NULL	NULL	NULL	TrialProc	Irrelevant	BlockList	1	2	0	470230	10	469740	2	534	470274
TRSEscan	1091	1	60.001	1	-1398917858	7/15/2010	18:55:34	3	BlockProc	SessionList	2	1	4	15	NULL	NULL	NULL	NULL	15	4	59	Scenes	NULL	NULL	NULL	Categorize	2	6390	0	479630	10	473340	0	NULL	NULL	scene/s_439.bmp	NULL	NULL	NULL	NULL	NULL	NULL	Novel	SFFSFSSSFSSFSSFFFSFF	NULL	NULL	NULL	TrialProc	Irrelevant	BlockList	1	2	0	473230	10	472740	2	758	473498
TRSEscan	1091	1	60.001	1	-1398917858	7/15/2010	18:55:34	3	BlockProc	SessionList	2	1	4	16	NULL	NULL	NULL	NULL	16	4	60	Faces	NULL	NULL	NULL	Categorize	1	6390	0	486630	10	480340	2	NULL	NULL	face/f_135.bmp	NULL	NULL	NULL	NULL	NULL	NULL	Repeat	SFFSFSSSFSSFSSFFFSFF	NULL	NULL	NULL	TrialProc	Irrelevant	BlockList	1	1	0	480230	10	479740	1	558	480298
TRSEscan	1091	1	60.001	1	-1398917858	7/15/2010	18:55:34	3	BlockProc	SessionList	2	1	4	17	NULL	NULL	NULL	NULL	17	4	61	Faces	NULL	NULL	NULL	Categorize	1	2390	0	489629	10	487339	0	NULL	NULL	face/m_033.bmp	NULL	NULL	NULL	NULL	NULL	NULL	Novel	SFFSFSSSFSSFSSFFFSFF	NULL	NULL	NULL	TrialProc	Irrelevant	BlockList	1	1	0	487229	9	486739	1	583	487322
TRSEscan	1091	1	60.001	1	-1398917858	7/15/2010	18:55:34	3	BlockProc	SessionList	2	1	4	18	NULL	NULL	NULL	NULL	18	4	62	Faces	NULL	NULL	NULL	Categorize	1	4390	0	494629	10	490339	0	NULL	NULL	face/m_033.bmp	NULL	NULL	NULL	NULL	NULL	NULL	Repeat	SFFSFSSSFSSFSSFFFSFF	NULL	NULL	NULL	TrialProc	Irrelevant	BlockList	1	1	0	490229	10	489739	1	663	490402
TRSEscan	1091	1	60.001	1	-1398917858	7/15/2010	18:55:34	3	BlockProc	SessionList	2	1	4	19	NULL	NULL	NULL	NULL	19	4	63	Scenes	NULL	NULL	NULL	Categorize	2	2390	0	497629	10	495339	3	NULL	NULL	scene/s_172.bmp	NULL	NULL	NULL	NULL	NULL	NULL	Novel	SFFSFSSSFSSFSSFFFSFF	NULL	NULL	NULL	TrialProc	Irrelevant	BlockList	1	2	0	495229	10	494739	2	574	495313
TRSEscan	1091	1	60.001	1	-1398917858	7/15/2010	18:55:34	3	BlockProc	SessionList	2	1	4	20	NULL	NULL	NULL	NULL	20	4	64	Faces	NULL	NULL	NULL	Categorize	1	6390	0	504629	10	498339	1	NULL	NULL	face/f_081.bmp	NULL	NULL	NULL	NULL	NULL	NULL	Novel	SFFSFSSSFSSFSSFFFSFF	NULL	NULL	NULL	TrialProc	Irrelevant	BlockList	1	1	0	498229	10	497739	1	622	498361
TRSEscan	1091	1	60.001	1	-1398917858	7/15/2010	18:55:34	3	BlockProc	SessionList	2	1	4	21	NULL	NULL	NULL	NULL	21	4	65	Faces	NULL	NULL	NULL	Categorize	1	4390	0	509629	10	505339	0	NULL	NULL	face/m_035.bmp	NULL	NULL	NULL	NULL	NULL	NULL	Novel	SFFSFSSSFSSFSSFFFSFF	NULL	NULL	NULL	TrialProc	Irrelevant	BlockList	1	1	0	505229	10	504739	1	574	505313
TRSEscan	1091	1	60.001	1	-1398917858	7/15/2010	18:55:34	3	BlockProc	SessionList	2	1	4	22	NULL	NULL	NULL	NULL	22	4	66		NULL	NULL	NULL	Categorize			NULL	NULL	NULL	NULL		524629	522739		NULL	NULL	NULL	NULL	NULL	NULL			NULL	NULL	NULL	FeedbackProc		BlockList	NULL	NULL	NULL	NULL	NULL	NULL	NULL	NULL	NULL
TRSEscan	1091	1	60.001	1	-1398917858	7/15/2010	18:55:34	4	BlockProc	SessionList	2	1	5	1	-999999	527745	10	524739	1	5	67		1	2	597	Both			NULL	NULL	NULL	NULL		NULL	NULL		546993	1	529357	0	547995	547005			0	549895	548005	InstrProc		BlockList	NULL	NULL	NULL	NULL	NULL	NULL	NULL	NULL	NULL
TRSEscan	1091	1	60.001	1	-1398917858	7/15/2010	18:55:34	4	BlockProc	SessionList	2	1	5	2	NULL	NULL	NULL	NULL	2	5	68	Scenes	NULL	NULL	NULL	Both	1	4390	0	554895	10	550605	0	NULL	NULL	scene/s_165.bmp	NULL	NULL	NULL	NULL	NULL	NULL	Novel	SFFSFSSSFSSFSSFFFSFF	NULL	NULL	NULL	TrialProc	Relevant	BlockList	1	1	0	550495	10	550005	1	644	550649
TRSEscan	1091	1	60.001	1	-1398917858	7/15/2010	18:55:34	4	BlockProc	SessionList	2	1	5	3	NULL	NULL	NULL	NULL	3	5	69	Faces	NULL	NULL	NULL	Both	1	2390	0	557895	10	555605	1	NULL	NULL	face/f_111.bmp	NULL	NULL	NULL	NULL	NULL	NULL	Novel	SFFSFSSSFSSFSSFFFSFF	NULL	NULL	NULL	TrialProc	Relevant	BlockList	1	1	0	555495	10	555005	1	524	555529
TRSEscan	1091	1	60.001	1	-1398917858	7/15/2010	18:55:34	4	BlockProc	SessionList	2	1	5	4	NULL	NULL	NULL	NULL	4	5	70	Faces	NULL	NULL	NULL	Both	1	2390	0	560895	10	558605	0	NULL	NULL	face/f_139.bmp	NULL	NULL	NULL	NULL	NULL	NULL	Novel	SFFSFSSSFSSFSSFFFSFF	NULL	NULL	NULL	TrialProc	Relevant	BlockList	1	1	0	558495	10	558005	1	660	558665
TRSEscan	1091	1	60.001	1	-1398917858	7/15/2010	18:55:34	4	BlockProc	SessionList	2	1	5	5	NULL	NULL	NULL	NULL	5	5	71	Scenes	NULL	NULL	NULL	Both	1	4390	0	565895	10	561605	2	NULL	NULL	scene/s_385.bmp	NULL	NULL	NULL	NULL	NULL	NULL	Novel	SFFSFSSSFSSFSSFFFSFF	NULL	NULL	NULL	TrialProc	Relevant	BlockList	1	1	0	561495	10	561005	1	923	561928
TRSEscan	1091	1	60.001	1	-1398917858	7/15/2010	18:55:34	4	BlockProc	SessionList	2	1	5	6	NULL	NULL	NULL	NULL	6	5	72	Faces	NULL	NULL	NULL	Both	2	6390	0	572895	10	566605	1	NULL	NULL	face/f_139.bmp	NULL	NULL	NULL	NULL	NULL	NULL	Repeat	SFFSFSSSFSSFSSFFFSFF	NULL	NULL	NULL	TrialProc	Relevant	BlockList	0	2	0	566495	10	566005	1	651	566656
TRSEscan	1091	1	60.001	1	-1398917858	7/15/2010	18:55:34	4	BlockProc	SessionList	2	1	5	7	NULL	NULL	NULL	NULL	7	5	73	Scenes	NULL	NULL	NULL	Both	2	6390	0	579895	10	573605	1	NULL	NULL	scene/s_385.bmp	NULL	NULL	NULL	NULL	NULL	NULL	Repeat	SFFSFSSSFSSFSSFFFSFF	NULL	NULL	NULL	TrialProc	Relevant	BlockList	0	2	0	573495	10	573005	1	723	573728
TRSEscan	1091	1	60.001	1	-1398917858	7/15/2010	18:55:34	4	BlockProc	SessionList	2	1	5	8	NULL	NULL	NULL	NULL	8	5	74	Scenes	NULL	NULL	NULL	Both	1	4390	0	584895	10	580605	0	NULL	NULL	scene/s_050.bmp	NULL	NULL	NULL	NULL	NULL	NULL	Novel	SFFSFSSSFSSFSSFFFSFF	NULL	NULL	NULL	TrialProc	Relevant	BlockList	1	1	0	580495	10	580005	1	675	580680
TRSEscan	1091	1	60.001	1	-1398917858	7/15/2010	18:55:34	4	BlockProc	SessionList	2	1	5	9	NULL	NULL	NULL	NULL	9	5	75	Scenes	NULL	NULL	NULL	Both	2	2390	0	587895	10	585605	0	NULL	NULL	scene/s_050.bmp	NULL	NULL	NULL	NULL	NULL	NULL	Repeat	SFFSFSSSFSSFSSFFFSFF	NULL	NULL	NULL	TrialProc	Relevant	BlockList	1	2	0	585495	10	585005	2	635	585640
TRSEscan	1091	1	60.001	1	-1398917858	7/15/2010	18:55:34	4	BlockProc	SessionList	2	1	5	10	NULL	NULL	NULL	NULL	10	5	76	Faces	NULL	NULL	NULL	Both	1	4390	0	592895	10	588605	3	NULL	NULL	face/f_044.bmp	NULL	NULL	NULL	NULL	NULL	NULL	Novel	SFFSFSSSFSSFSSFFFSFF	NULL	NULL	NULL	TrialProc	Relevant	BlockList	1	1	0	588495	10	588005	1	547	588552
TRSEscan	1091	1	60.001	1	-1398917858	7/15/2010	18:55:34	4	BlockProc	SessionList	2	1	5	11	NULL	NULL	NULL	NULL	11	5	77	Scenes	NULL	NULL	NULL	Both	2	6390	0	599895	10	593605	1	NULL	NULL	scene/s_050.bmp	NULL	NULL	NULL	NULL	NULL	NULL	Repeat	SFFSFSSSFSSFSSFFFSFF	NULL	NULL	NULL	TrialProc	Relevant	BlockList	0	2	0	593495	10	593005	1	891	593896
TRSEscan	1091	1	60.001	1	-1398917858	7/15/2010	18:55:34	4	BlockProc	SessionList	2	1	5	12	NULL	NULL	NULL	NULL	12	5	78	Scenes	NULL	NULL	NULL	Both	1	2390	0	602895	10	600605	0	NULL	NULL	scene/s_273.bmp	NULL	NULL	NULL	NULL	NULL	NULL	Novel	SFFSFSSSFSSFSSFFFSFF	NULL	NULL	NULL	TrialProc	Relevant	BlockList	1	1	0	600495	10	600005	1	1147	601152
TRSEscan	1091	1	60.001	1	-1398917858	7/15/2010	18:55:34	4	BlockProc	SessionList	2	1	5	13	NULL	NULL	NULL	NULL	13	5	79	Faces	NULL	NULL	NULL	Both	2	4390	0	607895	10	603605	2	NULL	NULL	face/f_044.bmp	NULL	NULL	NULL	NULL	NULL	NULL	Repeat	SFFSFSSSFSSFSSFFFSFF	NULL	NULL	NULL	TrialProc	Relevant	BlockList	0	2	0	603495	10	603005	1	635	603640
TRSEscan	1091	1	60.001	1	-1398917858	7/15/2010	18:55:34	4	BlockProc	SessionList	2	1	5	14	NULL	NULL	NULL	NULL	14	5	80	Scenes	NULL	NULL	NULL	Both	2	2390	0	610894	10	608604	1	NULL	NULL	scene/s_273.bmp	NULL	NULL	NULL	NULL	NULL	NULL	Repeat	SFFSFSSSFSSFSSFFFSFF	NULL	NULL	NULL	TrialProc	Relevant	BlockList	0	2	0	608494	9	608004	1	1132	609136
TRSEscan	1091	1	60.001	1	-1398917858	7/15/2010	18:55:34	4	BlockProc	SessionList	2	1	5	15	NULL	NULL	NULL	NULL	15	5	81	Scenes	NULL	NULL	NULL	Both	1	6390	0	617894	10	611604	0	NULL	NULL	scene/s_176.bmp	NULL	NULL	NULL	NULL	NULL	NULL	Novel	SFFSFSSSFSSFSSFFFSFF	NULL	NULL	NULL	TrialProc	Relevant	BlockList	1	1	0	611494	10	611004	1	1332	612336
TRSEscan	1091	1	60.001	1	-1398917858	7/15/2010	18:55:34	4	BlockProc	SessionList	2	1	5	16	NULL	NULL	NULL	NULL	16	5	82	Faces	NULL	NULL	NULL	Both	2	6390	0	624894	10	618604	2	NULL	NULL	face/f_044.bmp	NULL	NULL	NULL	NULL	NULL	NULL	Repeat	SFFSFSSSFSSFSSFFFSFF	NULL	NULL	NULL	TrialProc	Relevant	BlockList	0	2	0	618494	10	618004	1	980	618984
TRSEscan	1091	1	60.001	1	-1398917858	7/15/2010	18:55:34	4	BlockProc	SessionList	2	1	5	17	NULL	NULL	NULL	NULL	17	5	83	Faces	NULL	NULL	NULL	Both	1	2390	0	627894	10	625604	0	NULL	NULL	face/m_083.bmp	NULL	NULL	NULL	NULL	NULL	NULL	Novel	SFFSFSSSFSSFSSFFFSFF	NULL	NULL	NULL	TrialProc	Relevant	BlockList	1	1	0	625494	10	625004	1	900	625904
TRSEscan	1091	1	60.001	1	-1398917858	7/15/2010	18:55:34	4	BlockProc	SessionList	2	1	5	18	NULL	NULL	NULL	NULL	18	5	84	Faces	NULL	NULL	NULL	Both	2	4390	0	632894	10	628604	0	NULL	NULL	face/m_083.bmp	NULL	NULL	NULL	NULL	NULL	NULL	Repeat	SFFSFSSSFSSFSSFFFSFF	NULL	NULL	NULL	TrialProc	Relevant	BlockList	1	2	0	628494	10	628004	2	884	628888
TRSEscan	1091	1	60.001	1	-1398917858	7/15/2010	18:55:34	4	BlockProc	SessionList	2	1	5	19	NULL	NULL	NULL	NULL	19	5	85	Scenes	NULL	NULL	NULL	Both	1	2390	0	635894	10	633604	3	NULL	NULL	scene/s_355.bmp	NULL	NULL	NULL	NULL	NULL	NULL	Novel	SFFSFSSSFSSFSSFFFSFF	NULL	NULL	NULL	TrialProc	Relevant	BlockList	1	1	0	633494	10	633004	1	1636	634640
TRSEscan	1091	1	60.001	1	-1398917858	7/15/2010	18:55:34	4	BlockProc	SessionList	2	1	5	20	NULL	NULL	NULL	NULL	20	5	86	Faces	NULL	NULL	NULL	Both	1	6390	0	642894	10	636604	1	NULL	NULL	face/f_142.bmp	NULL	NULL	NULL	NULL	NULL	NULL	Novel	SFFSFSSSFSSFSSFFFSFF	NULL	NULL	NULL	TrialProc	Relevant	BlockList	1	1	0	636494	10	636004	1	860	636864
TRSEscan	1091	1	60.001	1	-1398917858	7/15/2010	18:55:34	4	BlockProc	SessionList	2	1	5	21	NULL	NULL	NULL	NULL	21	5	87	Faces	NULL	NULL	NULL	Both	1	4390	0	647894	10	643604	0	NULL	NULL	face/m_119.bmp	NULL	NULL	NULL	NULL	NULL	NULL	Novel	SFFSFSSSFSSFSSFFFSFF	NULL	NULL	NULL	TrialProc	Relevant	BlockList	1	1	0	643494	10	643004	1	835	643839
TRSEscan	1091	1	60.001	1	-1398917858	7/15/2010	18:55:34	4	BlockProc	SessionList	2	1	5	22	NULL	NULL	NULL	NULL	22	5	88		NULL	NULL	NULL	Both			NULL	NULL	NULL	NULL		662894	661004		NULL	NULL	NULL	NULL	NULL	NULL			NULL	NULL	NULL	FeedbackProc		BlockList	NULL	NULL	NULL	NULL	NULL	NULL	NULL	NULL	NULL
TRSEscan	1091	2	60.001	1	-1784324378	7/15/2010	19:07:09	1	BlockProc	SessionList	2	2	1	1	-999999	71048	1	65961	1	2	1		1	2	707	Scenes			NULL	NULL	NULL	NULL		NULL	NULL		80848	1	72778	0	81851	80861			0	83751	81861	InstrProc		BlockList	NULL	NULL	NULL	NULL	NULL	NULL	NULL	NULL	NULL
TRSEscan	1091	2	60.001	1	-1784324378	7/15/2010	19:07:09	1	BlockProc	SessionList	2	2	1	2	NULL	NULL	NULL	NULL	2	2	2	Faces	NULL	NULL	NULL	Scenes	1	2390	0	86751	10	84461	0	NULL	NULL	face/m_102.bmp	NULL	NULL	NULL	NULL	NULL	NULL	Novel	FFSFFFSSFSSFSSSFSFFS	NULL	NULL	NULL	TrialProc	Irrelevant	BlockList	1	1	0	84351	10	83861	1	307	84168
TRSEscan	1091	2	60.001	1	-1784324378	7/15/2010	19:07:09	1	BlockProc	SessionList	2	2	1	3	NULL	NULL	NULL	NULL	3	2	3	Faces	NULL	NULL	NULL	Scenes	1	4390	0	91750	10	87460	0	NULL	NULL	face/f_085.bmp	NULL	NULL	NULL	NULL	NULL	NULL	Novel	FFSFFFSSFSSFSSSFSFFS	NULL	NULL	NULL	TrialProc	Irrelevant	BlockList	1	1	0	87350	9	86860	1	404	87264
TRSEscan	1091	2	60.001	1	-1784324378	7/15/2010	19:07:09	1	BlockProc	SessionList	2	2	1	4	NULL	NULL	NULL	NULL	4	2	4	Scenes	NULL	NULL	NULL	Scenes	1	6390	0	98750	10	92460	2	NULL	NULL	scene/s_185.bmp	NULL	NULL	NULL	NULL	NULL	NULL	Novel	FFSFFFSSFSSFSSSFSFFS	NULL	NULL	NULL	TrialProc	Relevant	BlockList	1	1	0	92350	10	91860	1	900	92760
TRSEscan	1091	2	60.001	1	-1784324378	7/15/2010	19:07:09	1	BlockProc	SessionList	2	2	1	5	NULL	NULL	NULL	NULL	5	2	5	Faces	NULL	NULL	NULL	Scenes	1	4390	0	103750	10	99460	1	NULL	NULL	face/f_085.bmp	NULL	NULL	NULL	NULL	NULL	NULL	Repeat	FFSFFFSSFSSFSSSFSFFS	NULL	NULL	NULL	TrialProc	Irrelevant	BlockList	1	1	0	99350	10	98860	1	596	99456
TRSEscan	1091	2	60.001	1	-1784324378	7/15/2010	19:07:09	1	BlockProc	SessionList	2	2	1	6	NULL	NULL	NULL	NULL	6	2	6	Faces	NULL	NULL	NULL	Scenes	1	2390	0	106750	10	104460	0	NULL	NULL	face/f_085.bmp	NULL	NULL	NULL	NULL	NULL	NULL	Repeat	FFSFFFSSFSSFSSSFSFFS	NULL	NULL	NULL	TrialProc	Irrelevant	BlockList	1	1	0	104350	10	103860	1	708	104568
TRSEscan	1091	2	60.001	1	-1784324378	7/15/2010	19:07:09	1	BlockProc	SessionList	2	2	1	7	NULL	NULL	NULL	NULL	7	2	7	Faces	NULL	NULL	NULL	Scenes	1	6390	0	113750	10	107460	0	NULL	NULL	face/m_047.bmp	NULL	NULL	NULL	NULL	NULL	NULL	Novel	FFSFFFSSFSSFSSSFSFFS	NULL	NULL	NULL	TrialProc	Irrelevant	BlockList	1	1	0	107350	10	106860	1	772	107632
TRSEscan	1091	2	60.001	1	-1784324378	7/15/2010	19:07:09	1	BlockProc	SessionList	2	2	1	8	NULL	NULL	NULL	NULL	8	2	8	Scenes	NULL	NULL	NULL	Scenes	1	2390	0	116750	10	114460	3	NULL	NULL	scene/s_216.bmp	NULL	NULL	NULL	NULL	NULL	NULL	Novel	FFSFFFSSFSSFSSSFSFFS	NULL	NULL	NULL	TrialProc	Relevant	BlockList	1	1	0	114350	10	113860	1	988	114848
TRSEscan	1091	2	60.001	1	-1784324378	7/15/2010	19:07:09	1	BlockProc	SessionList	2	2	1	9	NULL	NULL	NULL	NULL	9	2	9	Scenes	NULL	NULL	NULL	Scenes	2	4390	0	121750	10	117460	0	NULL	NULL	scene/s_216.bmp	NULL	NULL	NULL	NULL	NULL	NULL	Repeat	FFSFFFSSFSSFSSSFSFFS	NULL	NULL	NULL	TrialProc	Relevant	BlockList	1	2	0	117350	10	116860	2	788	117648
TRSEscan	1091	2	60.001	1	-1784324378	7/15/2010	19:07:09	1	BlockProc	SessionList	2	2	1	10	NULL	NULL	NULL	NULL	10	2	10	Faces	NULL	NULL	NULL	Scenes	1	2390	0	124750	10	122460	2	NULL	NULL	face/m_047.bmp	NULL	NULL	NULL	NULL	NULL	NULL	Repeat	FFSFFFSSFSSFSSSFSFFS	NULL	NULL	NULL	TrialProc	Irrelevant	BlockList	1	1	0	122350	10	121860	1	660	122520
TRSEscan	1091	2	60.001	1	-1784324378	7/15/2010	19:07:09	1	BlockProc	SessionList	2	2	1	11	NULL	NULL	NULL	NULL	11	2	11	Scenes	NULL	NULL	NULL	Scenes	2	4390	0	129750	10	125460	1	NULL	NULL	scene/s_216.bmp	NULL	NULL	NULL	NULL	NULL	NULL	Repeat	FFSFFFSSFSSFSSSFSFFS	NULL	NULL	NULL	TrialProc	Relevant	BlockList	1	2	0	125350	10	124860	2	644	125504
TRSEscan	1091	2	60.001	1	-1784324378	7/15/2010	19:07:09	1	BlockProc	SessionList	2	2	1	12	NULL	NULL	NULL	NULL	12	2	12	Scenes	NULL	NULL	NULL	Scenes	1	6390	0	136750	10	130460	0	NULL	NULL	scene/s_316.bmp	NULL	NULL	NULL	NULL	NULL	NULL	Novel	FFSFFFSSFSSFSSSFSFFS	NULL	NULL	NULL	TrialProc	Relevant	BlockList	1	1	0	130350	10	129860	1	868	130728
TRSEscan	1091	2	60.001	1	-1784324378	7/15/2010	19:07:09	1	BlockProc	SessionList	2	2	1	13	NULL	NULL	NULL	NULL	13	2	13	Faces	NULL	NULL	NULL	Scenes	1	4390	0	141750	10	137460	2	NULL	NULL	face/m_010.bmp	NULL	NULL	NULL	NULL	NULL	NULL	Novel	FFSFFFSSFSSFSSSFSFFS	NULL	NULL	NULL	TrialProc	Irrelevant	BlockList	1	1	0	137350	10	136860	1	627	137487
TRSEscan	1091	2	60.001	1	-1784324378	7/15/2010	19:07:09	1	BlockProc	SessionList	2	2	1	14	NULL	NULL	NULL	NULL	14	2	14	Scenes	NULL	NULL	NULL	Scenes	2	2390	0	144750	10	142460	1	NULL	NULL	scene/s_316.bmp	NULL	NULL	NULL	NULL	NULL	NULL	Repeat	FFSFFFSSFSSFSSSFSFFS	NULL	NULL	NULL	TrialProc	Relevant	BlockList	0	2	0	142350	10	141860	1	1379	143239
TRSEscan	1091	2	60.001	1	-1784324378	7/15/2010	19:07:09	1	BlockProc	SessionList	2	2	1	15	NULL	NULL	NULL	NULL	15	2	15	Scenes	NULL	NULL	NULL	Scenes	1	6390	0	151750	10	145460	0	NULL	NULL	scene/s_049.bmp	NULL	NULL	NULL	NULL	NULL	NULL	Novel	FFSFFFSSFSSFSSSFSFFS	NULL	NULL	NULL	TrialProc	Relevant	BlockList	1	1	0	145350	10	144860	1	1067	145927
TRSEscan	1091	2	60.001	1	-1784324378	7/15/2010	19:07:09	1	BlockProc	SessionList	2	2	1	16	NULL	NULL	NULL	NULL	16	2	16	Scenes	NULL	NULL	NULL	Scenes	1	4390	0	156750	10	152460	0	NULL	NULL	scene/s_166.bmp	NULL	NULL	NULL	NULL	NULL	NULL	Novel	FFSFFFSSFSSFSSSFSFFS	NULL	NULL	NULL	TrialProc	Relevant	BlockList	1	1	0	152350	10	151860	1	931	152791
TRSEscan	1091	2	60.001	1	-1784324378	7/15/2010	19:07:09	1	BlockProc	SessionList	2	2	1	17	NULL	NULL	NULL	NULL	17	2	17	Faces	NULL	NULL	NULL	Scenes	1	6390	0	163750	10	157460	3	NULL	NULL	face/m_049.bmp	NULL	NULL	NULL	NULL	NULL	NULL	Novel	FFSFFFSSFSSFSSSFSFFS	NULL	NULL	NULL	TrialProc	Irrelevant	BlockList	1	1	0	157350	10	156860	1	587	157447
TRSEscan	1091	2	60.001	1	-1784324378	7/15/2010	19:07:09	1	BlockProc	SessionList	2	2	1	18	NULL	NULL	NULL	NULL	18	2	18	Scenes	NULL	NULL	NULL	Scenes	2	2390	0	166749	10	164459	1	NULL	NULL	scene/s_166.bmp	NULL	NULL	NULL	NULL	NULL	NULL	Repeat	FFSFFFSSFSSFSSSFSFFS	NULL	NULL	NULL	TrialProc	Relevant	BlockList	0	2	0	164349	9	163859	1	1300	165159
TRSEscan	1091	2	60.001	1	-1784324378	7/15/2010	19:07:09	1	BlockProc	SessionList	2	2	1	19	NULL	NULL	NULL	NULL	19	2	19	Faces	NULL	NULL	NULL	Scenes	1	2390	0	169749	10	167459	1	NULL	NULL	face/m_049.bmp	NULL	NULL	NULL	NULL	NULL	NULL	Repeat	FFSFFFSSFSSFSSSFSFFS	NULL	NULL	NULL	TrialProc	Irrelevant	BlockList	1	1	0	167349	10	166859	1	628	167487
TRSEscan	1091	2	60.001	1	-1784324378	7/15/2010	19:07:09	1	BlockProc	SessionList	2	2	1	20	NULL	NULL	NULL	NULL	20	2	20	Faces	NULL	NULL	NULL	Scenes	1	6390	0	176749	10	170459	0	NULL	NULL	face/f_003.bmp	NULL	NULL	NULL	NULL	NULL	NULL	Novel	FFSFFFSSFSSFSSSFSFFS	NULL	NULL	NULL	TrialProc	Irrelevant	BlockList	1	1	0	170349	10	169859	1	556	170415
TRSEscan	1091	2	60.001	1	-1784324378	7/15/2010	19:07:09	1	BlockProc	SessionList	2	2	1	21	NULL	NULL	NULL	NULL	21	2	21	Scenes	NULL	NULL	NULL	Scenes	1	4390	0	181749	10	177459	2	NULL	NULL	scene/s_168.bmp	NULL	NULL	NULL	NULL	NULL	NULL	Novel	FFSFFFSSFSSFSSSFSFFS	NULL	NULL	NULL	TrialProc	Relevant	BlockList	1	1	0	177349	10	176859	1	1004	177863
TRSEscan	1091	2	60.001	1	-1784324378	7/15/2010	19:07:09	1	BlockProc	SessionList	2	2	1	22	NULL	NULL	NULL	NULL	22	2	22		NULL	NULL	NULL	Scenes			NULL	NULL	NULL	NULL		196749	194859		NULL	NULL	NULL	NULL	NULL	NULL			NULL	NULL	NULL	FeedbackProc		BlockList	NULL	NULL	NULL	NULL	NULL	NULL	NULL	NULL	NULL
TRSEscan	1091	2	60.001	1	-1784324378	7/15/2010	19:07:09	2	BlockProc	SessionList	2	2	2	1	-999999	200431	1	200293	1	3	23		1	2	1149	Categorize			NULL	NULL	NULL	NULL		NULL	NULL		219814	1	202593	0	220815	219825			0	222715	220825	InstrProc		BlockList	NULL	NULL	NULL	NULL	NULL	NULL	NULL	NULL	NULL
TRSEscan	1091	2	60.001	1	-1784324378	7/15/2010	19:07:09	2	BlockProc	SessionList	2	2	2	2	NULL	NULL	NULL	NULL	2	3	24	Faces	NULL	NULL	NULL	Categorize	1	2390	0	225715	10	223425	0	NULL	NULL	face/f_020.bmp	NULL	NULL	NULL	NULL	NULL	NULL	Novel	FFSFFFSSFSSFSSSFSFFS	NULL	NULL	NULL	TrialProc	Irrelevant	BlockList	1	1	0	223315	10	222825	1	445	223270
TRSEscan	1091	2	60.001	1	-1784324378	7/15/2010	19:07:09	2	BlockProc	SessionList	2	2	2	3	NULL	NULL	NULL	NULL	3	3	25	Faces	NULL	NULL	NULL	Categorize	1	4390	0	230715	10	226425	0	NULL	NULL	face/m_043.bmp	NULL	NULL	NULL	NULL	NULL	NULL	Novel	FFSFFFSSFSSFSSSFSFFS	NULL	NULL	NULL	TrialProc	Irrelevant	BlockList	1	1	0	226315	10	225825	1	453	226278
TRSEscan	1091	2	60.001	1	-1784324378	7/15/2010	19:07:09	2	BlockProc	SessionList	2	2	2	4	NULL	NULL	NULL	NULL	4	3	26	Scenes	NULL	NULL	NULL	Categorize	2	6390	0	237715	10	231425	2	NULL	NULL	scene/s_234.bmp	NULL	NULL	NULL	NULL	NULL	NULL	Novel	FFSFFFSSFSSFSSSFSFFS	NULL	NULL	NULL	TrialProc	Irrelevant	BlockList	1	2	0	231315	10	230825	2	533	231358
TRSEscan	1091	2	60.001	1	-1784324378	7/15/2010	19:07:09	2	BlockProc	SessionList	2	2	2	5	NULL	NULL	NULL	NULL	5	3	27	Faces	NULL	NULL	NULL	Categorize	1	4390	0	242715	10	238425	1	NULL	NULL	face/m_043.bmp	NULL	NULL	NULL	NULL	NULL	NULL	Repeat	FFSFFFSSFSSFSSSFSFFS	NULL	NULL	NULL	TrialProc	Irrelevant	BlockList	1	1	0	238315	10	237825	1	501	238326
TRSEscan	1091	2	60.001	1	-1784324378	7/15/2010	19:07:09	2	BlockProc	SessionList	2	2	2	6	NULL	NULL	NULL	NULL	6	3	28	Faces	NULL	NULL	NULL	Categorize	1	2390	0	245715	10	243425	0	NULL	NULL	face/m_043.bmp	NULL	NULL	NULL	NULL	NULL	NULL	Repeat	FFSFFFSSFSSFSSSFSFFS	NULL	NULL	NULL	TrialProc	Irrelevant	BlockList	1	1	0	243315	10	242825	1	517	243342
TRSEscan	1091	2	60.001	1	-1784324378	7/15/2010	19:07:09	2	BlockProc	SessionList	2	2	2	7	NULL	NULL	NULL	NULL	7	3	29	Faces	NULL	NULL	NULL	Categorize	1	6390	0	252715	10	246425	0	NULL	NULL	face/f_141.bmp	NULL	NULL	NULL	NULL	NULL	NULL	Novel	FFSFFFSSFSSFSSSFSFFS	NULL	NULL	NULL	TrialProc	Irrelevant	BlockList	1	1	0	246315	10	245825	1	557	246382
TRSEscan	1091	2	60.001	1	-1784324378	7/15/2010	19:07:09	2	BlockProc	SessionList	2	2	2	8	NULL	NULL	NULL	NULL	8	3	30	Scenes	NULL	NULL	NULL	Categorize	2	2390	0	255715	10	253425	3	NULL	NULL	scene/s_383.bmp	NULL	NULL	NULL	NULL	NULL	NULL	Novel	FFSFFFSSFSSFSSSFSFFS	NULL	NULL	NULL	TrialProc	Irrelevant	BlockList	1	2	0	253315	10	252825	2	485	253310
TRSEscan	1091	2	60.001	1	-1784324378	7/15/2010	19:07:09	2	BlockProc	SessionList	2	2	2	9	NULL	NULL	NULL	NULL	9	3	31	Scenes	NULL	NULL	NULL	Categorize	2	4390	0	260715	10	256425	0	NULL	NULL	scene/s_383.bmp	NULL	NULL	NULL	NULL	NULL	NULL	Repeat	FFSFFFSSFSSFSSSFSFFS	NULL	NULL	NULL	TrialProc	Irrelevant	BlockList	1	2	0	256315	10	255825	2	709	256534
TRSEscan	1091	2	60.001	1	-1784324378	7/15/2010	19:07:09	2	BlockProc	SessionList	2	2	2	10	NULL	NULL	NULL	NULL	10	3	32	Faces	NULL	NULL	NULL	Categorize	1	2390	0	263715	10	261425	2	NULL	NULL	face/f_141.bmp	NULL	NULL	NULL	NULL	NULL	NULL	Repeat	FFSFFFSSFSSFSSSFSFFS	NULL	NULL	NULL	TrialProc	Irrelevant	BlockList	1	1	0	261315	10	260825	1	597	261422
TRSEscan	1091	2	60.001	1	-1784324378	7/15/2010	19:07:09	2	BlockProc	SessionList	2	2	2	11	NULL	NULL	NULL	NULL	11	3	33	Scenes	NULL	NULL	NULL	Categorize	2	4390	0	268715	10	264425	1	NULL	NULL	scene/s_383.bmp	NULL	NULL	NULL	NULL	NULL	NULL	Repeat	FFSFFFSSFSSFSSSFSFFS	NULL	NULL	NULL	TrialProc	Irrelevant	BlockList	0	2	0	264315	10	263825	1	453	264278
TRSEscan	1091	2	60.001	1	-1784324378	7/15/2010	19:07:09	2	BlockProc	SessionList	2	2	2	12	NULL	NULL	NULL	NULL	12	3	34	Scenes	NULL	NULL	NULL	Categorize	2	6390	0	275715	10	269425	0	NULL	NULL	scene/s_043.bmp	NULL	NULL	NULL	NULL	NULL	NULL	Novel	FFSFFFSSFSSFSSSFSFFS	NULL	NULL	NULL	TrialProc	Irrelevant	BlockList	1	2	0	269315	10	268825	2	629	269454
TRSEscan	1091	2	60.001	1	-1784324378	7/15/2010	19:07:09	2	BlockProc	SessionList	2	2	2	13	NULL	NULL	NULL	NULL	13	3	35	Faces	NULL	NULL	NULL	Categorize	1	4390	0	280715	10	276425	2	NULL	NULL	face/m_088.bmp	NULL	NULL	NULL	NULL	NULL	NULL	Novel	FFSFFFSSFSSFSSSFSFFS	NULL	NULL	NULL	TrialProc	Irrelevant	BlockList	1	1	0	276315	10	275825	1	645	276470
TRSEscan	1091	2	60.001	1	-1784324378	7/15/2010	19:07:09	2	BlockProc	SessionList	2	2	2	14	NULL	NULL	NULL	NULL	14	3	36	Scenes	NULL	NULL	NULL	Categorize	2	2390	0	283714	10	281424	1	NULL	NULL	scene/s_043.bmp	NULL	NULL	NULL	NULL	NULL	NULL	Repeat	FFSFFFSSFSSFSSSFSFFS	NULL	NULL	NULL	TrialProc	Irrelevant	BlockList	1	2	0	281314	9	280824	2	574	281398
TRSEscan	1091	2	60.001	1	-1784324378	7/15/2010	19:07:09	2	BlockProc	SessionList	2	2	2	15	NULL	NULL	NULL	NULL	15	3	37	Scenes	NULL	NULL	NULL	Categorize	2	6390	0	290714	10	284424	0	NULL	NULL	scene/s_156.bmp	NULL	NULL	NULL	NULL	NULL	NULL	Novel	FFSFFFSSFSSFSSSFSFFS	NULL	NULL	NULL	TrialProc	Irrelevant	BlockList	1	2	0	284314	10	283824	2	637	284461
TRSEscan	1091	2	60.001	1	-1784324378	7/15/2010	19:07:09	2	BlockProc	SessionList	2	2	2	16	NULL	NULL	NULL	NULL	16	3	38	Scenes	NULL	NULL	NULL	Categorize	2	4390	0	295714	10	291424	0	NULL	NULL	scene/s_334.bmp	NULL	NULL	NULL	NULL	NULL	NULL	Novel	FFSFFFSSFSSFSSSFSFFS	NULL	NULL	NULL	TrialProc	Irrelevant	BlockList	1	2	0	291314	10	290824	2	645	291469
TRSEscan	1091	2	60.001	1	-1784324378	7/15/2010	19:07:09	2	BlockProc	SessionList	2	2	2	17	NULL	NULL	NULL	NULL	17	3	39	Faces	NULL	NULL	NULL	Categorize	1	6390	0	302714	10	296424	3	NULL	NULL	face/f_041.bmp	NULL	NULL	NULL	NULL	NULL	NULL	Novel	FFSFFFSSFSSFSSSFSFFS	NULL	NULL	NULL	TrialProc	Irrelevant	BlockList	1	1	0	296314	10	295824	1	509	296333
TRSEscan	1091	2	60.001	1	-1784324378	7/15/2010	19:07:09	2	BlockProc	SessionList	2	2	2	18	NULL	NULL	NULL	NULL	18	3	40	Scenes	NULL	NULL	NULL	Categorize	2	2390	0	305714	10	303424	1	NULL	NULL	scene/s_334.bmp	NULL	NULL	NULL	NULL	NULL	NULL	Repeat	FFSFFFSSFSSFSSSFSFFS	NULL	NULL	NULL	TrialProc	Irrelevant	BlockList	1	2	0	303314	10	302824	2	605	303429
TRSEscan	1091	2	60.001	1	-1784324378	7/15/2010	19:07:09	2	BlockProc	SessionList	2	2	2	19	NULL	NULL	NULL	NULL	19	3	41	Faces	NULL	NULL	NULL	Categorize	1	2390	0	308714	10	306424	1	NULL	NULL	face/f_041.bmp	NULL	NULL	NULL	NULL	NULL	NULL	Repeat	FFSFFFSSFSSFSSSFSFFS	NULL	NULL	NULL	TrialProc	Irrelevant	BlockList	1	1	0	306314	10	305824	1	669	306493
TRSEscan	1091	2	60.001	1	-1784324378	7/15/2010	19:07:09	2	BlockProc	SessionList	2	2	2	20	NULL	NULL	NULL	NULL	20	3	42	Faces	NULL	NULL	NULL	Categorize	1	6390	0	315714	10	309424	0	NULL	NULL	face/m_147.bmp	NULL	NULL	NULL	NULL	NULL	NULL	Novel	FFSFFFSSFSSFSSSFSFFS	NULL	NULL	NULL	TrialProc	Irrelevant	BlockList	1	1	0	309314	10	308824	1	573	309397
TRSEscan	1091	2	60.001	1	-1784324378	7/15/2010	19:07:09	2	BlockProc	SessionList	2	2	2	21	NULL	NULL	NULL	NULL	21	3	43	Scenes	NULL	NULL	NULL	Categorize	2	4390	0	320714	10	316424	2	NULL	NULL	scene/s_163.bmp	NULL	NULL	NULL	NULL	NULL	NULL	Novel	FFSFFFSSFSSFSSSFSFFS	NULL	NULL	NULL	TrialProc	Irrelevant	BlockList	1	2	0	316314	10	315824	2	565	316389
TRSEscan	1091	2	60.001	1	-1784324378	7/15/2010	19:07:09	2	BlockProc	SessionList	2	2	2	22	NULL	NULL	NULL	NULL	22	3	44		NULL	NULL	NULL	Categorize			NULL	NULL	NULL	NULL		335714	333824		NULL	NULL	NULL	NULL	NULL	NULL			NULL	NULL	NULL	FeedbackProc		BlockList	NULL	NULL	NULL	NULL	NULL	NULL	NULL	NULL	NULL
TRSEscan	1091	2	60.001	1	-1784324378	7/15/2010	19:07:09	3	BlockProc	SessionList	2	2	3	1	-999999	338893	10	335824	1	4	45		1	2	786	Both			NULL	NULL	NULL	NULL		NULL	NULL		355493	1	340708	0	356497	355507			0	358397	356507	InstrProc		BlockList	NULL	NULL	NULL	NULL	NULL	NULL	NULL	NULL	NULL
TRSEscan	1091	2	60.001	1	-1784324378	7/15/2010	19:07:09	3	BlockProc	SessionList	2	2	3	2	NULL	NULL	NULL	NULL	2	4	46	Faces	NULL	NULL	NULL	Both	1	2390	0	361397	10	359107	0	NULL	NULL	face/m_073.bmp	NULL	NULL	NULL	NULL	NULL	NULL	Novel	FFSFFFSSFSSFSSSFSFFS	NULL	NULL	NULL	TrialProc	Relevant	BlockList	1	1	0	358997	10	358507	1	241	358748
TRSEscan	1091	2	60.001	1	-1784324378	7/15/2010	19:07:09	3	BlockProc	SessionList	2	2	3	3	NULL	NULL	NULL	NULL	3	4	47	Faces	NULL	NULL	NULL	Both	1	4390	0	366397	10	362107	0	NULL	NULL	face/m_124.bmp	NULL	NULL	NULL	NULL	NULL	NULL	Novel	FFSFFFSSFSSFSSSFSFFS	NULL	NULL	NULL	TrialProc	Relevant	BlockList	1	1	0	361997	10	361507	1	1161	362668
TRSEscan	1091	2	60.001	1	-1784324378	7/15/2010	19:07:09	3	BlockProc	SessionList	2	2	3	4	NULL	NULL	NULL	NULL	4	4	48	Scenes	NULL	NULL	NULL	Both	1	6390	0	373397	10	367107	2	NULL	NULL	scene/s_122.bmp	NULL	NULL	NULL	NULL	NULL	NULL	Novel	FFSFFFSSFSSFSSSFSFFS	NULL	NULL	NULL	TrialProc	Relevant	BlockList	0	1	0	366997	10	366507	2	929	367436
TRSEscan	1091	2	60.001	1	-1784324378	7/15/2010	19:07:09	3	BlockProc	SessionList	2	2	3	5	NULL	NULL	NULL	NULL	5	4	49	Faces	NULL	NULL	NULL	Both	2	4390	0	378397	10	374107	1	NULL	NULL	face/m_124.bmp	NULL	NULL	NULL	NULL	NULL	NULL	Repeat	FFSFFFSSFSSFSSSFSFFS	NULL	NULL	NULL	TrialProc	Relevant	BlockList	0	2	0	373997	10	373507	1	513	374020
TRSEscan	1091	2	60.001	1	-1784324378	7/15/2010	19:07:09	3	BlockProc	SessionList	2	2	3	6	NULL	NULL	NULL	NULL	6	4	50	Faces	NULL	NULL	NULL	Both	2	2390	0	381396	9	379106	0	NULL	NULL	face/m_124.bmp	NULL	NULL	NULL	NULL	NULL	NULL	Repeat	FFSFFFSSFSSFSSSFSFFS	NULL	NULL	NULL	TrialProc	Relevant	BlockList	1	2	0	378997	10	378507	2	953	379460
TRSEscan	1091	2	60.001	1	-1784324378	7/15/2010	19:07:09	3	BlockProc	SessionList	2	2	3	7	NULL	NULL	NULL	NULL	7	4	51	Faces	NULL	NULL	NULL	Both	1	6390	0	388396	10	382106	0	NULL	NULL	face/m_122.bmp	NULL	NULL	NULL	NULL	NULL	NULL	Novel	FFSFFFSSFSSFSSSFSFFS	NULL	NULL	NULL	TrialProc	Relevant	BlockList	1	1	0	381996	10	381506	1	794	382300
TRSEscan	1091	2	60.001	1	-1784324378	7/15/2010	19:07:09	3	BlockProc	SessionList	2	2	3	8	NULL	NULL	NULL	NULL	8	4	52	Scenes	NULL	NULL	NULL	Both	1	2390	0	391396	10	389106	3	NULL	NULL	scene/s_361.bmp	NULL	NULL	NULL	NULL	NULL	NULL	Novel	FFSFFFSSFSSFSSSFSFFS	NULL	NULL	NULL	TrialProc	Relevant	BlockList	1	1	0	388996	10	388506	1	1162	389668
TRSEscan	1091	2	60.001	1	-1784324378	7/15/2010	19:07:09	3	BlockProc	SessionList	2	2	3	9	NULL	NULL	NULL	NULL	9	4	53	Scenes	NULL	NULL	NULL	Both	2	4390	0	396396	10	392106	0	NULL	NULL	scene/s_361.bmp	NULL	NULL	NULL	NULL	NULL	NULL	Repeat	FFSFFFSSFSSFSSSFSFFS	NULL	NULL	NULL	TrialProc	Relevant	BlockList	1	2	0	391996	10	391506	2	922	392428
TRSEscan	1091	2	60.001	1	-1784324378	7/15/2010	19:07:09	3	BlockProc	SessionList	2	2	3	10	NULL	NULL	NULL	NULL	10	4	54	Faces	NULL	NULL	NULL	Both	2	2390	0	399396	10	397106	2	NULL	NULL	face/m_122.bmp	NULL	NULL	NULL	NULL	NULL	NULL	Repeat	FFSFFFSSFSSFSSSFSFFS	NULL	NULL	NULL	TrialProc	Relevant	BlockList	0	2	0	396996	10	396506	1	618	397124
TRSEscan	1091	2	60.001	1	-1784324378	7/15/2010	19:07:09	3	BlockProc	SessionList	2	2	3	11	NULL	NULL	NULL	NULL	11	4	55	Scenes	NULL	NULL	NULL	Both	2	4390	0	404396	10	400106	1	NULL	NULL	scene/s_361.bmp	NULL	NULL	NULL	NULL	NULL	NULL	Repeat	FFSFFFSSFSSFSSSFSFFS	NULL	NULL	NULL	TrialProc	Relevant	BlockList	0	2	0	399996	10	399506	1	890	400396
TRSEscan	1091	2	60.001	1	-1784324378	7/15/2010	19:07:09	3	BlockProc	SessionList	2	2	3	12	NULL	NULL	NULL	NULL	12	4	56	Scenes	NULL	NULL	NULL	Both	1	6390	0	411396	10	405106	0	NULL	NULL	scene/s_159.bmp	NULL	NULL	NULL	NULL	NULL	NULL	Novel	FFSFFFSSFSSFSSSFSFFS	NULL	NULL	NULL	TrialProc	Relevant	BlockList	1	1	0	404996	10	404506	1	874	405380
TRSEscan	1091	2	60.001	1	-1784324378	7/15/2010	19:07:09	3	BlockProc	SessionList	2	2	3	13	NULL	NULL	NULL	NULL	13	4	57	Faces	NULL	NULL	NULL	Both	1	4390	0	416396	10	412106	2	NULL	NULL	face/m_029.bmp	NULL	NULL	NULL	NULL	NULL	NULL	Novel	FFSFFFSSFSSFSSSFSFFS	NULL	NULL	NULL	TrialProc	Relevant	BlockList	1	1	0	411996	10	411506	1	698	412204
TRSEscan	1091	2	60.001	1	-1784324378	7/15/2010	19:07:09	3	BlockProc	SessionList	2	2	3	14	NULL	NULL	NULL	NULL	14	4	58	Scenes	NULL	NULL	NULL	Both	2	2390	0	419396	10	417106	1	NULL	NULL	scene/s_159.bmp	NULL	NULL	NULL	NULL	NULL	NULL	Repeat	FFSFFFSSFSSFSSSFSFFS	NULL	NULL	NULL	TrialProc	Relevant	BlockList	0	2	0	416996	10	416506	1	882	417388
TRSEscan	1091	2	60.001	1	-1784324378	7/15/2010	19:07:09	3	BlockProc	SessionList	2	2	3	15	NULL	NULL	NULL	NULL	15	4	59	Scenes	NULL	NULL	NULL	Both	1	6390	0	426396	10	420106	0	NULL	NULL	scene/s_242.bmp	NULL	NULL	NULL	NULL	NULL	NULL	Novel	FFSFFFSSFSSFSSSFSFFS	NULL	NULL	NULL	TrialProc	Relevant	BlockList	1	1	0	419996	10	419506	1	1778	421284
TRSEscan	1091	2	60.001	1	-1784324378	7/15/2010	19:07:09	3	BlockProc	SessionList	2	2	3	16	NULL	NULL	NULL	NULL	16	4	60	Scenes	NULL	NULL	NULL	Both	1	4390	0	431396	10	427106	0	NULL	NULL	scene/s_432.bmp	NULL	NULL	NULL	NULL	NULL	NULL	Novel	FFSFFFSSFSSFSSSFSFFS	NULL	NULL	NULL	TrialProc	Relevant	BlockList	1	1	0	426996	10	426506	1	642	427148
TRSEscan	1091	2	60.001	1	-1784324378	7/15/2010	19:07:09	3	BlockProc	SessionList	2	2	3	17	NULL	NULL	NULL	NULL	17	4	61	Faces	NULL	NULL	NULL	Both	1	6390	0	438396	10	432106	3	NULL	NULL	face/f_005.bmp	NULL	NULL	NULL	NULL	NULL	NULL	Novel	FFSFFFSSFSSFSSSFSFFS	NULL	NULL	NULL	TrialProc	Relevant	BlockList	1	1	0	431996	10	431506	1	593	432099
TRSEscan	1091	2	60.001	1	-1784324378	7/15/2010	19:07:09	3	BlockProc	SessionList	2	2	3	18	NULL	NULL	NULL	NULL	18	4	62	Scenes	NULL	NULL	NULL	Both	2	2390	0	441396	10	439106	1	NULL	NULL	scene/s_432.bmp	NULL	NULL	NULL	NULL	NULL	NULL	Repeat	FFSFFFSSFSSFSSSFSFFS	NULL	NULL	NULL	TrialProc	Relevant	BlockList	0	2	0	438996	10	438506	1	1433	439939
TRSEscan	1091	2	60.001	1	-1784324378	7/15/2010	19:07:09	3	BlockProc	SessionList	2	2	3	19	NULL	NULL	NULL	NULL	19	4	63	Faces	NULL	NULL	NULL	Both	2	2390	0	444396	10	442106	1	NULL	NULL	face/f_005.bmp	NULL	NULL	NULL	NULL	NULL	NULL	Repeat	FFSFFFSSFSSFSSSFSFFS	NULL	NULL	NULL	TrialProc	Relevant	BlockList	0	2	0	441996	10	441506	1	1353	442859
TRSEscan	1091	2	60.001	1	-1784324378	7/15/2010	19:07:09	3	BlockProc	SessionList	2	2	3	20	NULL	NULL	NULL	NULL	20	4	64	Faces	NULL	NULL	NULL	Both	1	6390	0	451396	10	445106	0	NULL	NULL	face/m_085.bmp	NULL	NULL	NULL	NULL	NULL	NULL	Novel	FFSFFFSSFSSFSSSFSFFS	NULL	NULL	NULL	TrialProc	Relevant	BlockList	1	1	0	444996	10	444506	1	689	445195
TRSEscan	1091	2	60.001	1	-1784324378	7/15/2010	19:07:09	3	BlockProc	SessionList	2	2	3	21	NULL	NULL	NULL	NULL	21	4	65	Scenes	NULL	NULL	NULL	Both	1	4390	0	456395	9	452105	2	NULL	NULL	scene/s_400.bmp	NULL	NULL	NULL	NULL	NULL	NULL	Novel	FFSFFFSSFSSFSSSFSFFS	NULL	NULL	NULL	TrialProc	Relevant	BlockList	1	1	0	451996	10	451506	1	897	452403
TRSEscan	1091	2	60.001	1	-1784324378	7/15/2010	19:07:09	3	BlockProc	SessionList	2	2	3	22	NULL	NULL	NULL	NULL	22	4	66		NULL	NULL	NULL	Both			NULL	NULL	NULL	NULL		471395	469505		NULL	NULL	NULL	NULL	NULL	NULL			NULL	NULL	NULL	FeedbackProc		BlockList	NULL	NULL	NULL	NULL	NULL	NULL	NULL	NULL	NULL
TRSEscan	1091	2	60.001	1	-1784324378	7/15/2010	19:07:09	4	BlockProc	SessionList	2	2	4	1	-999999	475731	10	471505	1	5	67		1	2	856	Faces			NULL	NULL	NULL	NULL		NULL	NULL		494411	1	477606	0	495412	494422			0	497312	495422	InstrProc		BlockList	NULL	NULL	NULL	NULL	NULL	NULL	NULL	NULL	NULL
TRSEscan	1091	2	60.001	1	-1784324378	7/15/2010	19:07:09	4	BlockProc	SessionList	2	2	4	2	NULL	NULL	NULL	NULL	2	5	68	Faces	NULL	NULL	NULL	Faces	1	2390	0	500312	10	498022	0	NULL	NULL	face/f_123.bmp	NULL	NULL	NULL	NULL	NULL	NULL	Novel	FFSFFFSSFSSFSSSFSFFS	NULL	NULL	NULL	TrialProc	Relevant	BlockList	1	1	0	497912	10	497422	1	237	497659
TRSEscan	1091	2	60.001	1	-1784324378	7/15/2010	19:07:09	4	BlockProc	SessionList	2	2	4	3	NULL	NULL	NULL	NULL	3	5	69	Faces	NULL	NULL	NULL	Faces	1	4390	0	505311	10	501021	0	NULL	NULL	face/m_027.bmp	NULL	NULL	NULL	NULL	NULL	NULL	Novel	FFSFFFSSFSSFSSSFSFFS	NULL	NULL	NULL	TrialProc	Relevant	BlockList	1	1	0	500911	9	500421	1	589	501010
TRSEscan	1091	2	60.001	1	-1784324378	7/15/2010	19:07:09	4	BlockProc	SessionList	2	2	4	4	NULL	NULL	NULL	NULL	4	5	70	Scenes	NULL	NULL	NULL	Faces	1	6390	0	512311	10	506021	2	NULL	NULL	scene/s_425.bmp	NULL	NULL	NULL	NULL	NULL	NULL	Novel	FFSFFFSSFSSFSSSFSFFS	NULL	NULL	NULL	TrialProc	Irrelevant	BlockList	1	1	0	505911	10	505421	1	565	505986
TRSEscan	1091	2	60.001	1	-1784324378	7/15/2010	19:07:09	4	BlockProc	SessionList	2	2	4	5	NULL	NULL	NULL	NULL	5	5	71	Faces	NULL	NULL	NULL	Faces	2	4390	0	517311	10	513021	1	NULL	NULL	face/m_027.bmp	NULL	NULL	NULL	NULL	NULL	NULL	Repeat	FFSFFFSSFSSFSSSFSFFS	NULL	NULL	NULL	TrialProc	Relevant	BlockList	0	2	0	512911	10	512421	1	733	513154
TRSEscan	1091	2	60.001	1	-1784324378	7/15/2010	19:07:09	4	BlockProc	SessionList	2	2	4	6	NULL	NULL	NULL	NULL	6	5	72	Faces	NULL	NULL	NULL	Faces	2	2390	0	520311	10	518021	0	NULL	NULL	face/m_027.bmp	NULL	NULL	NULL	NULL	NULL	NULL	Repeat	FFSFFFSSFSSFSSSFSFFS	NULL	NULL	NULL	TrialProc	Relevant	BlockList	1	2	0	517911	10	517421	2	893	518314
TRSEscan	1091	2	60.001	1	-1784324378	7/15/2010	19:07:09	4	BlockProc	SessionList	2	2	4	7	NULL	NULL	NULL	NULL	7	5	73	Faces	NULL	NULL	NULL	Faces	1	6390	0	527311	10	521021	0	NULL	NULL	face/f_115.bmp	NULL	NULL	NULL	NULL	NULL	NULL	Novel	FFSFFFSSFSSFSSSFSFFS	NULL	NULL	NULL	TrialProc	Relevant	BlockList	1	1	0	520911	10	520421	1	693	521114
TRSEscan	1091	2	60.001	1	-1784324378	7/15/2010	19:07:09	4	BlockProc	SessionList	2	2	4	8	NULL	NULL	NULL	NULL	8	5	74	Scenes	NULL	NULL	NULL	Faces	1	2390	0	530311	10	528021	3	NULL	NULL	scene/s_272.bmp	NULL	NULL	NULL	NULL	NULL	NULL	Novel	FFSFFFSSFSSFSSSFSFFS	NULL	NULL	NULL	TrialProc	Irrelevant	BlockList	1	1	0	527911	10	527421	1	877	528298
TRSEscan	1091	2	60.001	1	-1784324378	7/15/2010	19:07:09	4	BlockProc	SessionList	2	2	4	9	NULL	NULL	NULL	NULL	9	5	75	Scenes	NULL	NULL	NULL	Faces	1	4390	0	535311	10	531021	0	NULL	NULL	scene/s_272.bmp	NULL	NULL	NULL	NULL	NULL	NULL	Repeat	FFSFFFSSFSSFSSSFSFFS	NULL	NULL	NULL	TrialProc	Irrelevant	BlockList	1	1	0	530911	10	530421	1	549	530970
TRSEscan	1091	2	60.001	1	-1784324378	7/15/2010	19:07:09	4	BlockProc	SessionList	2	2	4	10	NULL	NULL	NULL	NULL	10	5	76	Faces	NULL	NULL	NULL	Faces	2	2390	0	538311	10	536021	2	NULL	NULL	face/f_115.bmp	NULL	NULL	NULL	NULL	NULL	NULL	Repeat	FFSFFFSSFSSFSSSFSFFS	NULL	NULL	NULL	TrialProc	Relevant	BlockList	1	2	0	535911	10	535421	2	1165	536586
TRSEscan	1091	2	60.001	1	-1784324378	7/15/2010	19:07:09	4	BlockProc	SessionList	2	2	4	11	NULL	NULL	NULL	NULL	11	5	77	Scenes	NULL	NULL	NULL	Faces	1	4390	0	543311	10	539021	1	NULL	NULL	scene/s_272.bmp	NULL	NULL	NULL	NULL	NULL	NULL	Repeat	FFSFFFSSFSSFSSSFSFFS	NULL	NULL	NULL	TrialProc	Irrelevant	BlockList	1	1	0	538911	10	538421	1	653	539074
TRSEscan	1091	2	60.001	1	-1784324378	7/15/2010	19:07:09	4	BlockProc	SessionList	2	2	4	12	NULL	NULL	NULL	NULL	12	5	78	Scenes	NULL	NULL	NULL	Faces	1	6390	0	550311	10	544021	0	NULL	NULL	scene/s_304.bmp	NULL	NULL	NULL	NULL	NULL	NULL	Novel	FFSFFFSSFSSFSSSFSFFS	NULL	NULL	NULL	TrialProc	Irrelevant	BlockList	1	1	0	543911	10	543421	1	1461	544882
TRSEscan	1091	2	60.001	1	-1784324378	7/15/2010	19:07:09	4	BlockProc	SessionList	2	2	4	13	NULL	NULL	NULL	NULL	13	5	79	Faces	NULL	NULL	NULL	Faces	1	4390	0	555311	10	551021	2	NULL	NULL	face/m_089.bmp	NULL	NULL	NULL	NULL	NULL	NULL	Novel	FFSFFFSSFSSFSSSFSFFS	NULL	NULL	NULL	TrialProc	Relevant	BlockList	1	1	0	550911	10	550421	1	1301	551722
TRSEscan	1091	2	60.001	1	-1784324378	7/15/2010	19:07:09	4	BlockProc	SessionList	2	2	4	14	NULL	NULL	NULL	NULL	14	5	80	Scenes	NULL	NULL	NULL	Faces	1	2390	0	558311	10	556021	1	NULL	NULL	scene/s_304.bmp	NULL	NULL	NULL	NULL	NULL	NULL	Repeat	FFSFFFSSFSSFSSSFSFFS	NULL	NULL	NULL	TrialProc	Irrelevant	BlockList	1	1	0	555911	10	555421	1	869	556290
TRSEscan	1091	2	60.001	1	-1784324378	7/15/2010	19:07:09	4	BlockProc	SessionList	2	2	4	15	NULL	NULL	NULL	NULL	15	5	81	Scenes	NULL	NULL	NULL	Faces	1	6390	0	565311	10	559021	0	NULL	NULL	scene/s_170.bmp	NULL	NULL	NULL	NULL	NULL	NULL	Novel	FFSFFFSSFSSFSSSFSFFS	NULL	NULL	NULL	TrialProc	Irrelevant	BlockList	1	1	0	558911	10	558421	1	589	559010
TRSEscan	1091	2	60.001	1	-1784324378	7/15/2010	19:07:09	4	BlockProc	SessionList	2	2	4	16	NULL	NULL	NULL	NULL	16	5	82	Scenes	NULL	NULL	NULL	Faces	1	4390	0	570311	10	566021	0	NULL	NULL	scene/s_192.bmp	NULL	NULL	NULL	NULL	NULL	NULL	Novel	FFSFFFSSFSSFSSSFSFFS	NULL	NULL	NULL	TrialProc	Irrelevant	BlockList	1	1	0	565911	10	565421	1	845	566266
TRSEscan	1091	2	60.001	1	-1784324378	7/15/2010	19:07:09	4	BlockProc	SessionList	2	2	4	17	NULL	NULL	NULL	NULL	17	5	83	Faces	NULL	NULL	NULL	Faces	1	6390	0	577311	10	571021	3	NULL	NULL	face/f_045.bmp	NULL	NULL	NULL	NULL	NULL	NULL	Novel	FFSFFFSSFSSFSSSFSFFS	NULL	NULL	NULL	TrialProc	Relevant	BlockList	1	1	0	570911	10	570421	1	909	571330
TRSEscan	1091	2	60.001	1	-1784324378	7/15/2010	19:07:09	4	BlockProc	SessionList	2	2	4	18	NULL	NULL	NULL	NULL	18	5	84	Scenes	NULL	NULL	NULL	Faces	1	2390	0	580310	10	578020	1	NULL	NULL	scene/s_192.bmp	NULL	NULL	NULL	NULL	NULL	NULL	Repeat	FFSFFFSSFSSFSSSFSFFS	NULL	NULL	NULL	TrialProc	Irrelevant	BlockList	1	1	0	577910	9	577420	1	741	578161
TRSEscan	1091	2	60.001	1	-1784324378	7/15/2010	19:07:09	4	BlockProc	SessionList	2	2	4	19	NULL	NULL	NULL	NULL	19	5	85	Faces	NULL	NULL	NULL	Faces	2	2390	0	583310	10	581020	1	NULL	NULL	face/f_045.bmp	NULL	NULL	NULL	NULL	NULL	NULL	Repeat	FFSFFFSSFSSFSSSFSFFS	NULL	NULL	NULL	TrialProc	Relevant	BlockList	1	2	0	580910	10	580420	2	2397	582817
TRSEscan	1091	2	60.001	1	-1784324378	7/15/2010	19:07:09	4	BlockProc	SessionList	2	2	4	20	NULL	NULL	NULL	NULL	20	5	86	Faces	NULL	NULL	NULL	Faces	1	6390	0	590310	10	584020	0	NULL	NULL	face/f_146.bmp	NULL	NULL	NULL	NULL	NULL	NULL	Novel	FFSFFFSSFSSFSSSFSFFS	NULL	NULL	NULL	TrialProc	Relevant	BlockList	1	1	0	583910	10	583420	1	645	584065
TRSEscan	1091	2	60.001	1	-1784324378	7/15/2010	19:07:09	4	BlockProc	SessionList	2	2	4	21	NULL	NULL	NULL	NULL	21	5	87	Scenes	NULL	NULL	NULL	Faces	1	4390	0	595310	10	591020	2	NULL	NULL	scene/s_352.bmp	NULL	NULL	NULL	NULL	NULL	NULL	Novel	FFSFFFSSFSSFSSSFSFFS	NULL	NULL	NULL	TrialProc	Irrelevant	BlockList	1	1	0	590910	10	590420	1	597	591017
TRSEscan	1091	2	60.001	1	-1784324378	7/15/2010	19:07:09	4	BlockProc	SessionList	2	2	4	22	NULL	NULL	NULL	NULL	22	5	88		NULL	NULL	NULL	Faces			NULL	NULL	NULL	NULL		610310	608420		NULL	NULL	NULL	NULL	NULL	NULL			NULL	NULL	NULL	FeedbackProc		BlockList	NULL	NULL	NULL	NULL	NULL	NULL	NULL	NULL	NULL
TRSEscan	1091	3	60.002	1	1298671134	7/15/2010	19:18:18	1	BlockProc	SessionList	2	2	1	1	-999999	57351	1	52088	1	2	1		1	2	1141	Categorize			NULL	NULL	NULL	NULL		NULL	NULL		67607	1	59504	0	68610	67620			0	70510	68620	InstrProc		BlockList	NULL	NULL	NULL	NULL	NULL	NULL	NULL	NULL	NULL
TRSEscan	1091	3	60.002	1	1298671134	7/15/2010	19:18:18	1	BlockProc	SessionList	2	2	1	2	NULL	NULL	NULL	NULL	2	2	2	Faces	NULL	NULL	NULL	Categorize	1	4390	0	75510	10	71220	0	NULL	NULL	face/f_066.bmp	NULL	NULL	NULL	NULL	NULL	NULL	Novel	FFSFFFSFFSSFSFSSSFSS	NULL	NULL	NULL	TrialProc	Irrelevant	BlockList	1	1	0	71110	10	70620	1	347	70967
TRSEscan	1091	3	60.002	1	1298671134	7/15/2010	19:18:18	1	BlockProc	SessionList	2	2	1	3	NULL	NULL	NULL	NULL	3	2	3	Faces	NULL	NULL	NULL	Categorize	1	2390	0	78510	10	76220	0	NULL	NULL	face/f_099.bmp	NULL	NULL	NULL	NULL	NULL	NULL	Novel	FFSFFFSFFSSFSFSSSFSS	NULL	NULL	NULL	TrialProc	Irrelevant	BlockList	1	1	0	76110	10	75620	1	459	76079
TRSEscan	1091	3	60.002	1	1298671134	7/15/2010	19:18:18	1	BlockProc	SessionList	2	2	1	4	NULL	NULL	NULL	NULL	4	2	4	Scenes	NULL	NULL	NULL	Categorize	2	2390	0	81510	10	79220	2	NULL	NULL	scene/s_315.bmp	NULL	NULL	NULL	NULL	NULL	NULL	Novel	FFSFFFSFFSSFSFSSSFSS	NULL	NULL	NULL	TrialProc	Irrelevant	BlockList	1	2	0	79110	10	78620	2	803	79423
TRSEscan	1091	3	60.002	1	1298671134	7/15/2010	19:18:18	1	BlockProc	SessionList	2	2	1	5	NULL	NULL	NULL	NULL	5	2	5	Faces	NULL	NULL	NULL	Categorize	1	6390	0	88510	10	82220	1	NULL	NULL	face/f_147.bmp	NULL	NULL	NULL	NULL	NULL	NULL	Novel	FFSFFFSFFSSFSFSSSFSS	NULL	NULL	NULL	TrialProc	Irrelevant	BlockList	1	1	0	82110	10	81620	1	515	82135
TRSEscan	1091	3	60.002	1	1298671134	7/15/2010	19:18:18	1	BlockProc	SessionList	2	2	1	6	NULL	NULL	NULL	NULL	6	2	6	Faces	NULL	NULL	NULL	Categorize	1	4390	0	93510	10	89220	0	NULL	NULL	face/f_147.bmp	NULL	NULL	NULL	NULL	NULL	NULL	Repeat	FFSFFFSFFSSFSFSSSFSS	NULL	NULL	NULL	TrialProc	Irrelevant	BlockList	1	1	0	89110	10	88620	1	531	89151
TRSEscan	1091	3	60.002	1	1298671134	7/15/2010	19:18:18	1	BlockProc	SessionList	2	2	1	7	NULL	NULL	NULL	NULL	7	2	7	Faces	NULL	NULL	NULL	Categorize	1	6390	0	100510	10	94220	0	NULL	NULL	face/m_071.bmp	NULL	NULL	NULL	NULL	NULL	NULL	Novel	FFSFFFSFFSSFSFSSSFSS	NULL	NULL	NULL	TrialProc	Irrelevant	BlockList	1	1	0	94110	10	93620	1	579	94199
TRSEscan	1091	3	60.002	1	1298671134	7/15/2010	19:18:18	1	BlockProc	SessionList	2	2	1	8	NULL	NULL	NULL	NULL	8	2	8	Scenes	NULL	NULL	NULL	Categorize	2	2390	0	103510	10	101220	3	NULL	NULL	scene/s_434.bmp	NULL	NULL	NULL	NULL	NULL	NULL	Novel	FFSFFFSFFSSFSFSSSFSS	NULL	NULL	NULL	TrialProc	Irrelevant	BlockList	1	2	0	101110	10	100620	2	475	101095
TRSEscan	1091	3	60.002	1	1298671134	7/15/2010	19:18:18	1	BlockProc	SessionList	2	2	1	9	NULL	NULL	NULL	NULL	9	2	9	Faces	NULL	NULL	NULL	Categorize	1	4390	0	108510	10	104220	1	NULL	NULL	face/f_006.bmp	NULL	NULL	NULL	NULL	NULL	NULL	Novel	FFSFFFSFFSSFSFSSSFSS	NULL	NULL	NULL	TrialProc	Irrelevant	BlockList	1	1	0	104110	10	103620	1	483	104103
TRSEscan	1091	3	60.002	1	1298671134	7/15/2010	19:18:18	1	BlockProc	SessionList	2	2	1	10	NULL	NULL	NULL	NULL	10	2	10	Faces	NULL	NULL	NULL	Categorize	1	6390	0	115509	10	109219	0	NULL	NULL	face/f_006.bmp	NULL	NULL	NULL	NULL	NULL	NULL	Repeat	FFSFFFSFFSSFSFSSSFSS	NULL	NULL	NULL	TrialProc	Irrelevant	BlockList	1	1	0	109109	9	108619	1	572	109191
TRSEscan	1091	3	60.002	1	1298671134	7/15/2010	19:18:18	1	BlockProc	SessionList	2	2	1	11	NULL	NULL	NULL	NULL	11	2	11	Scenes	NULL	NULL	NULL	Categorize	2	4390	0	120509	10	116219	2	NULL	NULL	scene/s_025.bmp	NULL	NULL	NULL	NULL	NULL	NULL	Novel	FFSFFFSFFSSFSFSSSFSS	NULL	NULL	NULL	TrialProc	Irrelevant	BlockList	1	2	0	116109	10	115619	2	468	116087
TRSEscan	1091	3	60.002	1	1298671134	7/15/2010	19:18:18	1	BlockProc	SessionList	2	2	1	12	NULL	NULL	NULL	NULL	12	2	12	Scenes	NULL	NULL	NULL	Categorize	2	2390	0	123509	10	121219	0	NULL	NULL	scene/s_025.bmp	NULL	NULL	NULL	NULL	NULL	NULL	Repeat	FFSFFFSFFSSFSFSSSFSS	NULL	NULL	NULL	TrialProc	Irrelevant	BlockList	1	2	0	121109	10	120619	2	588	121207
TRSEscan	1091	3	60.002	1	1298671134	7/15/2010	19:18:18	1	BlockProc	SessionList	2	2	1	13	NULL	NULL	NULL	NULL	13	2	13	Faces	NULL	NULL	NULL	Categorize	1	4390	0	128509	10	124219	2	NULL	NULL	face/f_006.bmp	NULL	NULL	NULL	NULL	NULL	NULL	Repeat	FFSFFFSFFSSFSFSSSFSS	NULL	NULL	NULL	TrialProc	Irrelevant	BlockList	1	1	0	124109	10	123619	1	571	124190
TRSEscan	1091	3	60.002	1	1298671134	7/15/2010	19:18:18	1	BlockProc	SessionList	2	2	1	14	NULL	NULL	NULL	NULL	14	2	14	Scenes	NULL	NULL	NULL	Categorize	2	2390	0	131509	10	129219	1	NULL	NULL	scene/s_317.bmp	NULL	NULL	NULL	NULL	NULL	NULL	Novel	FFSFFFSFFSSFSFSSSFSS	NULL	NULL	NULL	TrialProc	Irrelevant	BlockList	1	2	0	129109	10	128619	2	1003	129622
TRSEscan	1091	3	60.002	1	1298671134	7/15/2010	19:18:18	1	BlockProc	SessionList	2	2	1	15	NULL	NULL	NULL	NULL	15	2	15	Faces	NULL	NULL	NULL	Categorize	1	6390	0	138509	10	132219	1	NULL	NULL	face/m_069.bmp	NULL	NULL	NULL	NULL	NULL	NULL	Novel	FFSFFFSFFSSFSFSSSFSS	NULL	NULL	NULL	TrialProc	Irrelevant	BlockList	1	1	0	132109	10	131619	1	531	132150
TRSEscan	1091	3	60.002	1	1298671134	7/15/2010	19:18:18	1	BlockProc	SessionList	2	2	1	16	NULL	NULL	NULL	NULL	16	2	16	Scenes	NULL	NULL	NULL	Categorize	2	4390	0	143509	10	139219	1	NULL	NULL	scene/s_306.bmp	NULL	NULL	NULL	NULL	NULL	NULL	Novel	FFSFFFSFFSSFSFSSSFSS	NULL	NULL	NULL	TrialProc	Irrelevant	BlockList	1	2	0	139109	10	138619	2	595	139214
TRSEscan	1091	3	60.002	1	1298671134	7/15/2010	19:18:18	1	BlockProc	SessionList	2	2	1	17	NULL	NULL	NULL	NULL	17	2	17	Scenes	NULL	NULL	NULL	Categorize	2	6390	0	150509	10	144219	0	NULL	NULL	scene/s_306.bmp	NULL	NULL	NULL	NULL	NULL	NULL	Repeat	FFSFFFSFFSSFSFSSSFSS	NULL	NULL	NULL	TrialProc	Irrelevant	BlockList	1	2	0	144109	10	143619	2	843	144462
TRSEscan	1091	3	60.002	1	1298671134	7/15/2010	19:18:18	1	BlockProc	SessionList	2	2	1	18	NULL	NULL	NULL	NULL	18	2	18	Scenes	NULL	NULL	NULL	Categorize	2	2390	0	153509	10	151219	0	NULL	NULL	scene/s_306.bmp	NULL	NULL	NULL	NULL	NULL	NULL	Repeat	FFSFFFSFFSSFSFSSSFSS	NULL	NULL	NULL	TrialProc	Irrelevant	BlockList	1	2	0	151109	10	150619	2	1067	151686
TRSEscan	1091	3	60.002	1	1298671134	7/15/2010	19:18:18	1	BlockProc	SessionList	2	2	1	19	NULL	NULL	NULL	NULL	19	2	19	Faces	NULL	NULL	NULL	Categorize	1	2390	0	156509	10	154219	3	NULL	NULL	face/m_069.bmp	NULL	NULL	NULL	NULL	NULL	NULL	Repeat	FFSFFFSFFSSFSFSSSFSS	NULL	NULL	NULL	TrialProc	Irrelevant	BlockList	1	1	0	154109	10	153619	1	715	154334
TRSEscan	1091	3	60.002	1	1298671134	7/15/2010	19:18:18	1	BlockProc	SessionList	2	2	1	20	NULL	NULL	NULL	NULL	20	2	20	Scenes	NULL	NULL	NULL	Categorize	2	4390	0	161509	10	157219	1	NULL	NULL	scene/s_351.bmp	NULL	NULL	NULL	NULL	NULL	NULL	Novel	FFSFFFSFFSSFSFSSSFSS	NULL	NULL	NULL	TrialProc	Irrelevant	BlockList	1	2	0	157109	10	156619	2	603	157222
TRSEscan	1091	3	60.002	1	1298671134	7/15/2010	19:18:18	1	BlockProc	SessionList	2	2	1	21	NULL	NULL	NULL	NULL	21	2	21	Scenes	NULL	NULL	NULL	Categorize	2	6390	0	168509	10	162219	0	NULL	NULL	scene/s_351.bmp	NULL	NULL	NULL	NULL	NULL	NULL	Repeat	FFSFFFSFFSSFSFSSSFSS	NULL	NULL	NULL	TrialProc	Irrelevant	BlockList	1	2	0	162109	10	161619	2	1099	162718
TRSEscan	1091	3	60.002	1	1298671134	7/15/2010	19:18:18	1	BlockProc	SessionList	2	2	1	22	NULL	NULL	NULL	NULL	22	2	22		NULL	NULL	NULL	Categorize			NULL	NULL	NULL	NULL		183508	181618		NULL	NULL	NULL	NULL	NULL	NULL			NULL	NULL	NULL	FeedbackProc		BlockList	NULL	NULL	NULL	NULL	NULL	NULL	NULL	NULL	NULL
TRSEscan	1091	3	60.002	1	1298671134	7/15/2010	19:18:18	2	BlockProc	SessionList	2	2	2	1	-999999	186822	10	183618	1	3	23		1	2	995	Both			NULL	NULL	NULL	NULL		NULL	NULL		210157	1	188836	0	211158	210168			0	213058	211168	InstrProc		BlockList	NULL	NULL	NULL	NULL	NULL	NULL	NULL	NULL	NULL
TRSEscan	1091	3	60.002	1	1298671134	7/15/2010	19:18:18	2	BlockProc	SessionList	2	2	2	2	NULL	NULL	NULL	NULL	2	3	24	Faces	NULL	NULL	NULL	Both	1	4390	0	218058	10	213768	0	NULL	NULL	face/m_068.bmp	NULL	NULL	NULL	NULL	NULL	NULL	Novel	FFSFFFSFFSSFSFSSSFSS	NULL	NULL	NULL	TrialProc	Relevant	BlockList	1	1	0	213658	10	213168	1	301	213469
TRSEscan	1091	3	60.002	1	1298671134	7/15/2010	19:18:18	2	BlockProc	SessionList	2	2	2	3	NULL	NULL	NULL	NULL	3	3	25	Faces	NULL	NULL	NULL	Both	1	2390	0	221058	10	218768	0	NULL	NULL	face/m_070.bmp	NULL	NULL	NULL	NULL	NULL	NULL	Novel	FFSFFFSFFSSFSFSSSFSS	NULL	NULL	NULL	TrialProc	Relevant	BlockList	1	1	0	218658	10	218168	1	477	218645
TRSEscan	1091	3	60.002	1	1298671134	7/15/2010	19:18:18	2	BlockProc	SessionList	2	2	2	4	NULL	NULL	NULL	NULL	4	3	26	Scenes	NULL	NULL	NULL	Both	1	2390	0	224058	10	221768	2	NULL	NULL	scene/s_342.bmp	NULL	NULL	NULL	NULL	NULL	NULL	Novel	FFSFFFSFFSSFSFSSSFSS	NULL	NULL	NULL	TrialProc	Relevant	BlockList	1	1	0	221658	10	221168	1	989	222157
TRSEscan	1091	3	60.002	1	1298671134	7/15/2010	19:18:18	2	BlockProc	SessionList	2	2	2	5	NULL	NULL	NULL	NULL	5	3	27	Faces	NULL	NULL	NULL	Both	1	6390	0	231058	10	224768	1	NULL	NULL	face/m_076.bmp	NULL	NULL	NULL	NULL	NULL	NULL	Novel	FFSFFFSFFSSFSFSSSFSS	NULL	NULL	NULL	TrialProc	Relevant	BlockList	1	1	0	224658	10	224168	1	533	224701
TRSEscan	1091	3	60.002	1	1298671134	7/15/2010	19:18:18	2	BlockProc	SessionList	2	2	2	6	NULL	NULL	NULL	NULL	6	3	28	Faces	NULL	NULL	NULL	Both	2	4390	0	236058	10	231768	0	NULL	NULL	face/m_076.bmp	NULL	NULL	NULL	NULL	NULL	NULL	Repeat	FFSFFFSFFSSFSFSSSFSS	NULL	NULL	NULL	TrialProc	Relevant	BlockList	1	2	0	231658	10	231168	2	613	231781
TRSEscan	1091	3	60.002	1	1298671134	7/15/2010	19:18:18	2	BlockProc	SessionList	2	2	2	7	NULL	NULL	NULL	NULL	7	3	29	Faces	NULL	NULL	NULL	Both	1	6390	0	243058	10	236768	0	NULL	NULL	face/f_126.bmp	NULL	NULL	NULL	NULL	NULL	NULL	Novel	FFSFFFSFFSSFSFSSSFSS	NULL	NULL	NULL	TrialProc	Relevant	BlockList	1	1	0	236658	10	236168	1	477	236645
TRSEscan	1091	3	60.002	1	1298671134	7/15/2010	19:18:18	2	BlockProc	SessionList	2	2	2	8	NULL	NULL	NULL	NULL	8	3	30	Scenes	NULL	NULL	NULL	Both	1	2390	0	246058	10	243768	3	NULL	NULL	scene/s_171.bmp	NULL	NULL	NULL	NULL	NULL	NULL	Novel	FFSFFFSFFSSFSFSSSFSS	NULL	NULL	NULL	TrialProc	Relevant	BlockList	1	1	0	243658	10	243168	1	717	243885
TRSEscan	1091	3	60.002	1	1298671134	7/15/2010	19:18:18	2	BlockProc	SessionList	2	2	2	9	NULL	NULL	NULL	NULL	9	3	31	Faces	NULL	NULL	NULL	Both	1	4390	0	251058	10	246768	1	NULL	NULL	face/m_056.bmp	NULL	NULL	NULL	NULL	NULL	NULL	Novel	FFSFFFSFFSSFSFSSSFSS	NULL	NULL	NULL	TrialProc	Relevant	BlockList	1	1	0	246658	10	246168	1	605	246773
TRSEscan	1091	3	60.002	1	1298671134	7/15/2010	19:18:18	2	BlockProc	SessionList	2	2	2	10	NULL	NULL	NULL	NULL	10	3	32	Faces	NULL	NULL	NULL	Both	2	6390	0	258058	10	251768	0	NULL	NULL	face/m_056.bmp	NULL	NULL	NULL	NULL	NULL	NULL	Repeat	FFSFFFSFFSSFSFSSSFSS	NULL	NULL	NULL	TrialProc	Relevant	BlockList	0	2	0	251658	10	251168	1	597	251765
TRSEscan	1091	3	60.002	1	1298671134	7/15/2010	19:18:18	2	BlockProc	SessionList	2	2	2	11	NULL	NULL	NULL	NULL	11	3	33	Scenes	NULL	NULL	NULL	Both	1	4390	0	263057	10	258767	2	NULL	NULL	scene/s_395.bmp	NULL	NULL	NULL	NULL	NULL	NULL	Novel	FFSFFFSFFSSFSFSSSFSS	NULL	NULL	NULL	TrialProc	Relevant	BlockList	1	1	0	258657	9	258167	1	726	258893
TRSEscan	1091	3	60.002	1	1298671134	7/15/2010	19:18:18	2	BlockProc	SessionList	2	2	2	12	NULL	NULL	NULL	NULL	12	3	34	Scenes	NULL	NULL	NULL	Both	2	2390	0	266057	10	263767	0	NULL	NULL	scene/s_395.bmp	NULL	NULL	NULL	NULL	NULL	NULL	Repeat	FFSFFFSFFSSFSFSSSFSS	NULL	NULL	NULL	TrialProc	Relevant	BlockList	1	2	0	263657	10	263167	2	878	264045
TRSEscan	1091	3	60.002	1	1298671134	7/15/2010	19:18:18	2	BlockProc	SessionList	2	2	2	13	NULL	NULL	NULL	NULL	13	3	35	Faces	NULL	NULL	NULL	Both	2	4390	0	271057	10	266767	2	NULL	NULL	face/m_056.bmp	NULL	NULL	NULL	NULL	NULL	NULL	Repeat	FFSFFFSFFSSFSFSSSFSS	NULL	NULL	NULL	TrialProc	Relevant	BlockList	0	2	0	266657	10	266167	1	646	266813
TRSEscan	1091	3	60.002	1	1298671134	7/15/2010	19:18:18	2	BlockProc	SessionList	2	2	2	14	NULL	NULL	NULL	NULL	14	3	36	Scenes	NULL	NULL	NULL	Both	1	2390	0	274057	10	271767	1	NULL	NULL	scene/s_391.bmp	NULL	NULL	NULL	NULL	NULL	NULL	Novel	FFSFFFSFFSSFSFSSSFSS	NULL	NULL	NULL	TrialProc	Relevant	BlockList	1	1	0	271657	10	271167	1	1237	272404
TRSEscan	1091	3	60.002	1	1298671134	7/15/2010	19:18:18	2	BlockProc	SessionList	2	2	2	15	NULL	NULL	NULL	NULL	15	3	37	Faces	NULL	NULL	NULL	Both	1	6390	0	281057	10	274767	1	NULL	NULL	face/m_075.bmp	NULL	NULL	NULL	NULL	NULL	NULL	Novel	FFSFFFSFFSSFSFSSSFSS	NULL	NULL	NULL	TrialProc	Relevant	BlockList	1	1	0	274657	10	274167	1	669	274836
TRSEscan	1091	3	60.002	1	1298671134	7/15/2010	19:18:18	2	BlockProc	SessionList	2	2	2	16	NULL	NULL	NULL	NULL	16	3	38	Scenes	NULL	NULL	NULL	Both	1	4390	0	286057	10	281767	1	NULL	NULL	scene/s_251.bmp	NULL	NULL	NULL	NULL	NULL	NULL	Novel	FFSFFFSFFSSFSFSSSFSS	NULL	NULL	NULL	TrialProc	Relevant	BlockList	1	1	0	281657	10	281167	1	781	281948
TRSEscan	1091	3	60.002	1	1298671134	7/15/2010	19:18:18	2	BlockProc	SessionList	2	2	2	17	NULL	NULL	NULL	NULL	17	3	39	Scenes	NULL	NULL	NULL	Both	2	6390	0	293057	10	286767	0	NULL	NULL	scene/s_251.bmp	NULL	NULL	NULL	NULL	NULL	NULL	Repeat	FFSFFFSFFSSFSFSSSFSS	NULL	NULL	NULL	TrialProc	Relevant	BlockList	1	2	0	286657	10	286167	2	1069	287236
TRSEscan	1091	3	60.002	1	1298671134	7/15/2010	19:18:18	2	BlockProc	SessionList	2	2	2	18	NULL	NULL	NULL	NULL	18	3	40	Scenes	NULL	NULL	NULL	Both	2	2390	0	296057	10	293767	0	NULL	NULL	scene/s_251.bmp	NULL	NULL	NULL	NULL	NULL	NULL	Repeat	FFSFFFSFFSSFSFSSSFSS	NULL	NULL	NULL	TrialProc	Relevant	BlockList	1	2	0	293657	10	293167	2	805	293972
TRSEscan	1091	3	60.002	1	1298671134	7/15/2010	19:18:18	2	BlockProc	SessionList	2	2	2	19	NULL	NULL	NULL	NULL	19	3	41	Faces	NULL	NULL	NULL	Both	2	2390	0	299057	10	296767	3	NULL	NULL	face/m_075.bmp	NULL	NULL	NULL	NULL	NULL	NULL	Repeat	FFSFFFSFFSSFSFSSSFSS	NULL	NULL	NULL	TrialProc	Relevant	BlockList	0	2	0	296657	10	296167	1	1069	297236
TRSEscan	1091	3	60.002	1	1298671134	7/15/2010	19:18:18	2	BlockProc	SessionList	2	2	2	20	NULL	NULL	NULL	NULL	20	3	42	Scenes	NULL	NULL	NULL	Both	1	4390	0	304057	10	299767	1	NULL	NULL	scene/s_036.bmp	NULL	NULL	NULL	NULL	NULL	NULL	Novel	FFSFFFSFFSSFSFSSSFSS	NULL	NULL	NULL	TrialProc	Relevant	BlockList	1	1	0	299657	10	299167	1	2189	301356
TRSEscan	1091	3	60.002	1	1298671134	7/15/2010	19:18:18	2	BlockProc	SessionList	2	2	2	21	NULL	NULL	NULL	NULL	21	3	43	Scenes	NULL	NULL	NULL	Both	2	6390	0	311057	10	304767	0	NULL	NULL	scene/s_036.bmp	NULL	NULL	NULL	NULL	NULL	NULL	Repeat	FFSFFFSFFSSFSFSSSFSS	NULL	NULL	NULL	TrialProc	Relevant	BlockList	1	2	0	304657	10	304167	2	733	304900
TRSEscan	1091	3	60.002	1	1298671134	7/15/2010	19:18:18	2	BlockProc	SessionList	2	2	2	22	NULL	NULL	NULL	NULL	22	3	44		NULL	NULL	NULL	Both			NULL	NULL	NULL	NULL		326057	324167		NULL	NULL	NULL	NULL	NULL	NULL			NULL	NULL	NULL	FeedbackProc		BlockList	NULL	NULL	NULL	NULL	NULL	NULL	NULL	NULL	NULL
TRSEscan	1091	3	60.002	1	1298671134	7/15/2010	19:18:18	3	BlockProc	SessionList	2	2	3	1	-999999	328068	10	326167	1	4	45		1	2	4737	Faces			NULL	NULL	NULL	NULL		NULL	NULL		345972	1	333834	0	346973	345983			0	348873	346983	InstrProc		BlockList	NULL	NULL	NULL	NULL	NULL	NULL	NULL	NULL	NULL
TRSEscan	1091	3	60.002	1	1298671134	7/15/2010	19:18:18	3	BlockProc	SessionList	2	2	3	2	NULL	NULL	NULL	NULL	2	4	46	Faces	NULL	NULL	NULL	Faces	1	4390	0	353873	10	349583	0	NULL	NULL	face/m_065.bmp	NULL	NULL	NULL	NULL	NULL	NULL	Novel	FFSFFFSFFSSFSFSSSFSS	NULL	NULL	NULL	TrialProc	Relevant	BlockList	1	1	0	349473	10	348983	1	308	349291
TRSEscan	1091	3	60.002	1	1298671134	7/15/2010	19:18:18	3	BlockProc	SessionList	2	2	3	3	NULL	NULL	NULL	NULL	3	4	47	Faces	NULL	NULL	NULL	Faces	1	2390	0	356873	10	354583	0	NULL	NULL	face/f_022.bmp	NULL	NULL	NULL	NULL	NULL	NULL	Novel	FFSFFFSFFSSFSFSSSFSS	NULL	NULL	NULL	TrialProc	Relevant	BlockList	1	1	0	354473	10	353983	1	468	354451
TRSEscan	1091	3	60.002	1	1298671134	7/15/2010	19:18:18	3	BlockProc	SessionList	2	2	3	4	NULL	NULL	NULL	NULL	4	4	48	Scenes	NULL	NULL	NULL	Faces	1	2390	0	359873	10	357583	2	NULL	NULL	scene/s_311.bmp	NULL	NULL	NULL	NULL	NULL	NULL	Novel	FFSFFFSFFSSFSFSSSFSS	NULL	NULL	NULL	TrialProc	Irrelevant	BlockList	1	1	0	357473	10	356983	1	532	357515
TRSEscan	1091	3	60.002	1	1298671134	7/15/2010	19:18:18	3	BlockProc	SessionList	2	2	3	5	NULL	NULL	NULL	NULL	5	4	49	Faces	NULL	NULL	NULL	Faces	1	6390	0	366873	10	360583	1	NULL	NULL	face/f_008.bmp	NULL	NULL	NULL	NULL	NULL	NULL	Novel	FFSFFFSFFSSFSFSSSFSS	NULL	NULL	NULL	TrialProc	Relevant	BlockList	1	1	0	360473	10	359983	1	524	360507
TRSEscan	1091	3	60.002	1	1298671134	7/15/2010	19:18:18	3	BlockProc	SessionList	2	2	3	6	NULL	NULL	NULL	NULL	6	4	50	Faces	NULL	NULL	NULL	Faces	2	4390	0	371873	10	367583	0	NULL	NULL	face/f_008.bmp	NULL	NULL	NULL	NULL	NULL	NULL	Repeat	FFSFFFSFFSSFSFSSSFSS	NULL	NULL	NULL	TrialProc	Relevant	BlockList	1	2	0	367473	10	366983	2	804	367787
TRSEscan	1091	3	60.002	1	1298671134	7/15/2010	19:18:18	3	BlockProc	SessionList	2	2	3	7	NULL	NULL	NULL	NULL	7	4	51	Faces	NULL	NULL	NULL	Faces	1	6390	0	378873	10	372583	0	NULL	NULL	face/f_035.bmp	NULL	NULL	NULL	NULL	NULL	NULL	Novel	FFSFFFSFFSSFSFSSSFSS	NULL	NULL	NULL	TrialProc	Relevant	BlockList	1	1	0	372473	10	371983	1	580	372563
TRSEscan	1091	3	60.002	1	1298671134	7/15/2010	19:18:18	3	BlockProc	SessionList	2	2	3	8	NULL	NULL	NULL	NULL	8	4	52	Scenes	NULL	NULL	NULL	Faces	1	2390	0	381872	10	379582	3	NULL	NULL	scene/s_389.bmp	NULL	NULL	NULL	NULL	NULL	NULL	Novel	FFSFFFSFFSSFSFSSSFSS	NULL	NULL	NULL	TrialProc	Irrelevant	BlockList	1	1	0	379472	9	378982	1	925	379907
TRSEscan	1091	3	60.002	1	1298671134	7/15/2010	19:18:18	3	BlockProc	SessionList	2	2	3	9	NULL	NULL	NULL	NULL	9	4	53	Faces	NULL	NULL	NULL	Faces	1	4390	0	386872	10	382582	1	NULL	NULL	face/m_121.bmp	NULL	NULL	NULL	NULL	NULL	NULL	Novel	FFSFFFSFFSSFSFSSSFSS	NULL	NULL	NULL	TrialProc	Relevant	BlockList	1	1	0	382472	10	381982	1	661	382643
TRSEscan	1091	3	60.002	1	1298671134	7/15/2010	19:18:18	3	BlockProc	SessionList	2	2	3	10	NULL	NULL	NULL	NULL	10	4	54	Faces	NULL	NULL	NULL	Faces	2	6390	0	393872	10	387582	0	NULL	NULL	face/m_121.bmp	NULL	NULL	NULL	NULL	NULL	NULL	Repeat	FFSFFFSFFSSFSFSSSFSS	NULL	NULL	NULL	TrialProc	Relevant	BlockList	1	2	0	387472	10	386982	2	861	387843
TRSEscan	1091	3	60.002	1	1298671134	7/15/2010	19:18:18	3	BlockProc	SessionList	2	2	3	11	NULL	NULL	NULL	NULL	11	4	55	Scenes	NULL	NULL	NULL	Faces	1	4390	0	398872	10	394582	2	NULL	NULL	scene/s_177.bmp	NULL	NULL	NULL	NULL	NULL	NULL	Novel	FFSFFFSFFSSFSFSSSFSS	NULL	NULL	NULL	TrialProc	Irrelevant	BlockList	1	1	0	394472	10	393982	1	1117	395099
TRSEscan	1091	3	60.002	1	1298671134	7/15/2010	19:18:18	3	BlockProc	SessionList	2	2	3	12	NULL	NULL	NULL	NULL	12	4	56	Scenes	NULL	NULL	NULL	Faces	1	2390	0	401872	10	399582	0	NULL	NULL	scene/s_177.bmp	NULL	NULL	NULL	NULL	NULL	NULL	Repeat	FFSFFFSFFSSFSFSSSFSS	NULL	NULL	NULL	TrialProc	Irrelevant	BlockList	1	1	0	399472	10	398982	1	1005	399987
TRSEscan	1091	3	60.002	1	1298671134	7/15/2010	19:18:18	3	BlockProc	SessionList	2	2	3	13	NULL	NULL	NULL	NULL	13	4	57	Faces	NULL	NULL	NULL	Faces	2	4390	0	406872	10	402582	2	NULL	NULL	face/m_121.bmp	NULL	NULL	NULL	NULL	NULL	NULL	Repeat	FFSFFFSFFSSFSFSSSFSS	NULL	NULL	NULL	TrialProc	Relevant	BlockList	1	2	0	402472	10	401982	2	677	402659
TRSEscan	1091	3	60.002	1	1298671134	7/15/2010	19:18:18	3	BlockProc	SessionList	2	2	3	14	NULL	NULL	NULL	NULL	14	4	58	Scenes	NULL	NULL	NULL	Faces	1	2390	0	409872	10	407582	1	NULL	NULL	scene/s_028.bmp	NULL	NULL	NULL	NULL	NULL	NULL	Novel	FFSFFFSFFSSFSFSSSFSS	NULL	NULL	NULL	TrialProc	Irrelevant	BlockList	1	1	0	407472	10	406982	1	621	407603
TRSEscan	1091	3	60.002	1	1298671134	7/15/2010	19:18:18	3	BlockProc	SessionList	2	2	3	15	NULL	NULL	NULL	NULL	15	4	59	Faces	NULL	NULL	NULL	Faces	1	6390	0	416872	10	410582	1	NULL	NULL	face/f_007.bmp	NULL	NULL	NULL	NULL	NULL	NULL	Novel	FFSFFFSFFSSFSFSSSFSS	NULL	NULL	NULL	TrialProc	Relevant	BlockList	1	1	0	410472	10	409982	1	917	410899
TRSEscan	1091	3	60.002	1	1298671134	7/15/2010	19:18:18	3	BlockProc	SessionList	2	2	3	16	NULL	NULL	NULL	NULL	16	4	60	Scenes	NULL	NULL	NULL	Faces	1	4390	0	421872	10	417582	1	NULL	NULL	scene/s_320.bmp	NULL	NULL	NULL	NULL	NULL	NULL	Novel	FFSFFFSFFSSFSFSSSFSS	NULL	NULL	NULL	TrialProc	Irrelevant	BlockList	1	1	0	417472	10	416982	1	797	417779
TRSEscan	1091	3	60.002	1	1298671134	7/15/2010	19:18:18	3	BlockProc	SessionList	2	2	3	17	NULL	NULL	NULL	NULL	17	4	61	Scenes	NULL	NULL	NULL	Faces	1	6390	0	428872	10	422582	0	NULL	NULL	scene/s_320.bmp	NULL	NULL	NULL	NULL	NULL	NULL	Repeat	FFSFFFSFFSSFSFSSSFSS	NULL	NULL	NULL	TrialProc	Irrelevant	BlockList	1	1	0	422472	10	421982	1	740	422722
TRSEscan	1091	3	60.002	1	1298671134	7/15/2010	19:18:18	3	BlockProc	SessionList	2	2	3	18	NULL	NULL	NULL	NULL	18	4	62	Scenes	NULL	NULL	NULL	Faces	1	2390	0	431872	10	429582	0	NULL	NULL	scene/s_320.bmp	NULL	NULL	NULL	NULL	NULL	NULL	Repeat	FFSFFFSFFSSFSFSSSFSS	NULL	NULL	NULL	TrialProc	Irrelevant	BlockList	1	1	0	429472	10	428982	1	740	429722
TRSEscan	1091	3	60.002	1	1298671134	7/15/2010	19:18:18	3	BlockProc	SessionList	2	2	3	19	NULL	NULL	NULL	NULL	19	4	63	Faces	NULL	NULL	NULL	Faces	2	2390	0	434872	10	432582	3	NULL	NULL	face/f_007.bmp	NULL	NULL	NULL	NULL	NULL	NULL	Repeat	FFSFFFSFFSSFSFSSSFSS	NULL	NULL	NULL	TrialProc	Relevant	BlockList	1	2	0	432472	10	431982	2	1084	433066
TRSEscan	1091	3	60.002	1	1298671134	7/15/2010	19:18:18	3	BlockProc	SessionList	2	2	3	20	NULL	NULL	NULL	NULL	20	4	64	Scenes	NULL	NULL	NULL	Faces	1	4390	0	439872	10	435582	1	NULL	NULL	scene/s_401.bmp	NULL	NULL	NULL	NULL	NULL	NULL	Novel	FFSFFFSFFSSFSFSSSFSS	NULL	NULL	NULL	TrialProc	Irrelevant	BlockList	1	1	0	435472	10	434982	1	604	435586
TRSEscan	1091	3	60.002	1	1298671134	7/15/2010	19:18:18	3	BlockProc	SessionList	2	2	3	21	NULL	NULL	NULL	NULL	21	4	65	Scenes	NULL	NULL	NULL	Faces	1	6390	0	446872	10	440582	0	NULL	NULL	scene/s_401.bmp	NULL	NULL	NULL	NULL	NULL	NULL	Repeat	FFSFFFSFFSSFSFSSSFSS	NULL	NULL	NULL	TrialProc	Irrelevant	BlockList	1	1	0	440472	10	439982	1	604	440586
TRSEscan	1091	3	60.002	1	1298671134	7/15/2010	19:18:18	3	BlockProc	SessionList	2	2	3	22	NULL	NULL	NULL	NULL	22	4	66		NULL	NULL	NULL	Faces			NULL	NULL	NULL	NULL		461871	459981		NULL	NULL	NULL	NULL	NULL	NULL			NULL	NULL	NULL	FeedbackProc		BlockList	NULL	NULL	NULL	NULL	NULL	NULL	NULL	NULL	NULL
TRSEscan	1091	3	60.002	1	1298671134	7/15/2010	19:18:18	4	BlockProc	SessionList	2	2	4	1	-999999	464306	10	461981	1	5	67		1	2	431	Scenes			NULL	NULL	NULL	NULL		NULL	NULL		482138	1	465749	0	483138	482148			0	485038	483148	InstrProc		BlockList	NULL	NULL	NULL	NULL	NULL	NULL	NULL	NULL	NULL
TRSEscan	1091	3	60.002	1	1298671134	7/15/2010	19:18:18	4	BlockProc	SessionList	2	2	4	2	NULL	NULL	NULL	NULL	2	5	68	Faces	NULL	NULL	NULL	Scenes	1	4390	0	490038	10	485748	0	NULL	NULL	face/m_118.bmp	NULL	NULL	NULL	NULL	NULL	NULL	Novel	FFSFFFSFFSSFSFSSSFSS	NULL	NULL	NULL	TrialProc	Irrelevant	BlockList	1	1	0	485638	10	485148	1	342	485490
TRSEscan	1091	3	60.002	1	1298671134	7/15/2010	19:18:18	4	BlockProc	SessionList	2	2	4	3	NULL	NULL	NULL	NULL	3	5	69	Faces	NULL	NULL	NULL	Scenes	1	2390	0	493038	10	490748	0	NULL	NULL	face/f_132.bmp	NULL	NULL	NULL	NULL	NULL	NULL	Novel	FFSFFFSFFSSFSFSSSFSS	NULL	NULL	NULL	TrialProc	Irrelevant	BlockList	1	1	0	490638	10	490148	1	325	490473
TRSEscan	1091	3	60.002	1	1298671134	7/15/2010	19:18:18	4	BlockProc	SessionList	2	2	4	4	NULL	NULL	NULL	NULL	4	5	70	Scenes	NULL	NULL	NULL	Scenes	1	2390	0	496038	10	493748	2	NULL	NULL	scene/s_064.bmp	NULL	NULL	NULL	NULL	NULL	NULL	Novel	FFSFFFSFFSSFSFSSSFSS	NULL	NULL	NULL	TrialProc	Relevant	BlockList	1	1	0	493638	10	493148	1	381	493529
TRSEscan	1091	3	60.002	1	1298671134	7/15/2010	19:18:18	4	BlockProc	SessionList	2	2	4	5	NULL	NULL	NULL	NULL	5	5	71	Faces	NULL	NULL	NULL	Scenes	1	6390	0	503037	9	496747	1	NULL	NULL	face/f_017.bmp	NULL	NULL	NULL	NULL	NULL	NULL	Novel	FFSFFFSFFSSFSFSSSFSS	NULL	NULL	NULL	TrialProc	Irrelevant	BlockList	1	1	0	496638	10	496148	1	581	496729
TRSEscan	1091	3	60.002	1	1298671134	7/15/2010	19:18:18	4	BlockProc	SessionList	2	2	4	6	NULL	NULL	NULL	NULL	6	5	72	Faces	NULL	NULL	NULL	Scenes	1	4390	0	508037	10	503747	0	NULL	NULL	face/f_017.bmp	NULL	NULL	NULL	NULL	NULL	NULL	Repeat	FFSFFFSFFSSFSFSSSFSS	NULL	NULL	NULL	TrialProc	Irrelevant	BlockList	1	1	0	503637	10	503147	1	478	503625
TRSEscan	1091	3	60.002	1	1298671134	7/15/2010	19:18:18	4	BlockProc	SessionList	2	2	4	7	NULL	NULL	NULL	NULL	7	5	73	Faces	NULL	NULL	NULL	Scenes	1	6390	0	515037	10	508747	0	NULL	NULL	face/m_110.bmp	NULL	NULL	NULL	NULL	NULL	NULL	Novel	FFSFFFSFFSSFSFSSSFSS	NULL	NULL	NULL	TrialProc	Irrelevant	BlockList	1	1	0	508637	10	508147	1	526	508673
TRSEscan	1091	3	60.002	1	1298671134	7/15/2010	19:18:18	4	BlockProc	SessionList	2	2	4	8	NULL	NULL	NULL	NULL	8	5	74	Scenes	NULL	NULL	NULL	Scenes	1	2390	0	518037	10	515747	3	NULL	NULL	scene/s_289.bmp	NULL	NULL	NULL	NULL	NULL	NULL	Novel	FFSFFFSFFSSFSFSSSFSS	NULL	NULL	NULL	TrialProc	Relevant	BlockList	1	1	0	515637	10	515147	1	662	515809
TRSEscan	1091	3	60.002	1	1298671134	7/15/2010	19:18:18	4	BlockProc	SessionList	2	2	4	9	NULL	NULL	NULL	NULL	9	5	75	Faces	NULL	NULL	NULL	Scenes	1	4390	0	523037	10	518747	1	NULL	NULL	face/m_001.bmp	NULL	NULL	NULL	NULL	NULL	NULL	Novel	FFSFFFSFFSSFSFSSSFSS	NULL	NULL	NULL	TrialProc	Irrelevant	BlockList	1	1	0	518637	10	518147	1	486	518633
TRSEscan	1091	3	60.002	1	1298671134	7/15/2010	19:18:18	4	BlockProc	SessionList	2	2	4	10	NULL	NULL	NULL	NULL	10	5	76	Faces	NULL	NULL	NULL	Scenes	1	6390	0	530037	10	523747	0	NULL	NULL	face/m_001.bmp	NULL	NULL	NULL	NULL	NULL	NULL	Repeat	FFSFFFSFFSSFSFSSSFSS	NULL	NULL	NULL	TrialProc	Irrelevant	BlockList	1	1	0	523637	10	523147	1	494	523641
TRSEscan	1091	3	60.002	1	1298671134	7/15/2010	19:18:18	4	BlockProc	SessionList	2	2	4	11	NULL	NULL	NULL	NULL	11	5	77	Scenes	NULL	NULL	NULL	Scenes	1	4390	0	535037	10	530747	2	NULL	NULL	scene/s_259.bmp	NULL	NULL	NULL	NULL	NULL	NULL	Novel	FFSFFFSFFSSFSFSSSFSS	NULL	NULL	NULL	TrialProc	Relevant	BlockList	1	1	0	530637	10	530147	1	502	530649
TRSEscan	1091	3	60.002	1	1298671134	7/15/2010	19:18:18	4	BlockProc	SessionList	2	2	4	12	NULL	NULL	NULL	NULL	12	5	78	Scenes	NULL	NULL	NULL	Scenes	2	2390	0	538037	10	535747	0	NULL	NULL	scene/s_259.bmp	NULL	NULL	NULL	NULL	NULL	NULL	Repeat	FFSFFFSFFSSFSFSSSFSS	NULL	NULL	NULL	TrialProc	Relevant	BlockList	1	2	0	535637	10	535147	2	670	535817
TRSEscan	1091	3	60.002	1	1298671134	7/15/2010	19:18:18	4	BlockProc	SessionList	2	2	4	13	NULL	NULL	NULL	NULL	13	5	79	Faces	NULL	NULL	NULL	Scenes	1	4390	0	543037	10	538747	2	NULL	NULL	face/m_001.bmp	NULL	NULL	NULL	NULL	NULL	NULL	Repeat	FFSFFFSFFSSFSFSSSFSS	NULL	NULL	NULL	TrialProc	Irrelevant	BlockList	1	1	0	538637	10	538147	1	678	538825
TRSEscan	1091	3	60.002	1	1298671134	7/15/2010	19:18:18	4	BlockProc	SessionList	2	2	4	14	NULL	NULL	NULL	NULL	14	5	80	Scenes	NULL	NULL	NULL	Scenes	1	2390	0	546037	10	543747	1	NULL	NULL	scene/s_222.bmp	NULL	NULL	NULL	NULL	NULL	NULL	Novel	FFSFFFSFFSSFSFSSSFSS	NULL	NULL	NULL	TrialProc	Relevant	BlockList	1	1	0	543637	10	543147	1	838	543985
TRSEscan	1091	3	60.002	1	1298671134	7/15/2010	19:18:18	4	BlockProc	SessionList	2	2	4	15	NULL	NULL	NULL	NULL	15	5	81	Faces	NULL	NULL	NULL	Scenes	1	6390	0	553037	10	546747	1	NULL	NULL	face/f_094.bmp	NULL	NULL	NULL	NULL	NULL	NULL	Novel	FFSFFFSFFSSFSFSSSFSS	NULL	NULL	NULL	TrialProc	Irrelevant	BlockList	1	1	0	546637	10	546147	1	526	546673
TRSEscan	1091	3	60.002	1	1298671134	7/15/2010	19:18:18	4	BlockProc	SessionList	2	2	4	16	NULL	NULL	NULL	NULL	16	5	82	Scenes	NULL	NULL	NULL	Scenes	1	4390	0	558037	10	553747	1	NULL	NULL	scene/s_284.bmp	NULL	NULL	NULL	NULL	NULL	NULL	Novel	FFSFFFSFFSSFSFSSSFSS	NULL	NULL	NULL	TrialProc	Relevant	BlockList	1	1	0	553637	10	553147	1	598	553745
TRSEscan	1091	3	60.002	1	1298671134	7/15/2010	19:18:18	4	BlockProc	SessionList	2	2	4	17	NULL	NULL	NULL	NULL	17	5	83	Scenes	NULL	NULL	NULL	Scenes	2	6390	0	565037	10	558747	0	NULL	NULL	scene/s_284.bmp	NULL	NULL	NULL	NULL	NULL	NULL	Repeat	FFSFFFSFFSSFSFSSSFSS	NULL	NULL	NULL	TrialProc	Relevant	BlockList	1	2	0	558637	10	558147	2	782	558929
TRSEscan	1091	3	60.002	1	1298671134	7/15/2010	19:18:18	4	BlockProc	SessionList	2	2	4	18	NULL	NULL	NULL	NULL	18	5	84	Scenes	NULL	NULL	NULL	Scenes	2	2390	0	568037	10	565747	0	NULL	NULL	scene/s_284.bmp	NULL	NULL	NULL	NULL	NULL	NULL	Repeat	FFSFFFSFFSSFSFSSSFSS	NULL	NULL	NULL	TrialProc	Relevant	BlockList	1	2	0	565637	10	565147	2	774	565921
TRSEscan	1091	3	60.002	1	1298671134	7/15/2010	19:18:18	4	BlockProc	SessionList	2	2	4	19	NULL	NULL	NULL	NULL	19	5	85	Faces	NULL	NULL	NULL	Scenes	1	2390	0	571037	10	568747	3	NULL	NULL	face/f_094.bmp	NULL	NULL	NULL	NULL	NULL	NULL	Repeat	FFSFFFSFFSSFSFSSSFSS	NULL	NULL	NULL	TrialProc	Irrelevant	BlockList	1	1	0	568637	10	568147	1	581	568728
TRSEscan	1091	3	60.002	1	1298671134	7/15/2010	19:18:18	4	BlockProc	SessionList	2	2	4	20	NULL	NULL	NULL	NULL	20	5	86	Scenes	NULL	NULL	NULL	Scenes	1	4390	0	576036	10	571746	1	NULL	NULL	scene/s_204.bmp	NULL	NULL	NULL	NULL	NULL	NULL	Novel	FFSFFFSFFSSFSFSSSFSS	NULL	NULL	NULL	TrialProc	Relevant	BlockList	1	1	0	571636	9	571146	1	654	571800
TRSEscan	1091	3	60.002	1	1298671134	7/15/2010	19:18:18	4	BlockProc	SessionList	2	2	4	21	NULL	NULL	NULL	NULL	21	5	87	Scenes	NULL	NULL	NULL	Scenes	2	6390	0	583036	10	576746	0	NULL	NULL	scene/s_204.bmp	NULL	NULL	NULL	NULL	NULL	NULL	Repeat	FFSFFFSFFSSFSFSSSFSS	NULL	NULL	NULL	TrialProc	Relevant	BlockList	1	2	0	576636	10	576146	2	878	577024
TRSEscan	1091	3	60.002	1	1298671134	7/15/2010	19:18:18	4	BlockProc	SessionList	2	2	4	22	NULL	NULL	NULL	NULL	22	5	88		NULL	NULL	NULL	Scenes			NULL	NULL	NULL	NULL		598036	596146		NULL	NULL	NULL	NULL	NULL	NULL			NULL	NULL	NULL	FeedbackProc		BlockList	NULL	NULL	NULL	NULL	NULL	NULL	NULL	NULL	NULL
TRSEscan	1091	4	60.001	1	1023923566	7/15/2010	19:28:38	1	BlockProc	SessionList	2	2	1	1	-999999	80939	1	76291	1	2	1		1	2	678	Both			NULL	NULL	NULL	NULL		NULL	NULL		93755	1	82625	0	94747	93757			0	96647	94757	InstrProc		BlockList	NULL	NULL	NULL	NULL	NULL	NULL	NULL	NULL	NULL
TRSEscan	1091	4	60.001	1	1023923566	7/15/2010	19:28:38	1	BlockProc	SessionList	2	2	1	2	NULL	NULL	NULL	NULL	2	2	2	Scenes	NULL	NULL	NULL	Both	1	2390	0	99647	10	97357	0	NULL	NULL	scene/s_286.bmp	NULL	NULL	NULL	NULL	NULL	NULL	Novel	SSFSSSFSFSSFFSFFFSFF	NULL	NULL	NULL	TrialProc	Relevant	BlockList	1	1	0	97247	10	96757	1	350	97107
TRSEscan	1091	4	60.001	1	1023923566	7/15/2010	19:28:38	1	BlockProc	SessionList	2	2	1	3	NULL	NULL	NULL	NULL	3	2	3	Scenes	NULL	NULL	NULL	Both	2	4390	0	104647	10	100357	0	NULL	NULL	scene/s_286.bmp	NULL	NULL	NULL	NULL	NULL	NULL	Repeat	SSFSSSFSFSSFFSFFFSFF	NULL	NULL	NULL	TrialProc	Relevant	BlockList	1	2	0	100247	10	99757	2	686	100443
TRSEscan	1091	4	60.001	1	1023923566	7/15/2010	19:28:38	1	BlockProc	SessionList	2	2	1	4	NULL	NULL	NULL	NULL	4	2	4	Faces	NULL	NULL	NULL	Both	1	6390	0	111647	10	105357	2	NULL	NULL	face/f_019.bmp	NULL	NULL	NULL	NULL	NULL	NULL	Novel	SSFSSSFSFSSFFSFFFSFF	NULL	NULL	NULL	TrialProc	Relevant	BlockList	1	1	0	105247	10	104757	1	502	105259
TRSEscan	1091	4	60.001	1	1023923566	7/15/2010	19:28:38	1	BlockProc	SessionList	2	2	1	5	NULL	NULL	NULL	NULL	5	2	5	Scenes	NULL	NULL	NULL	Both	2	4390	0	116647	10	112357	1	NULL	NULL	scene/s_286.bmp	NULL	NULL	NULL	NULL	NULL	NULL	Repeat	SSFSSSFSFSSFFSFFFSFF	NULL	NULL	NULL	TrialProc	Relevant	BlockList	0	2	0	112247	10	111757	1	646	112403
TRSEscan	1091	4	60.001	1	1023923566	7/15/2010	19:28:38	1	BlockProc	SessionList	2	2	1	6	NULL	NULL	NULL	NULL	6	2	6	Scenes	NULL	NULL	NULL	Both	1	2390	0	119647	10	117357	0	NULL	NULL	scene/s_135.bmp	NULL	NULL	NULL	NULL	NULL	NULL	Novel	SSFSSSFSFSSFFSFFFSFF	NULL	NULL	NULL	TrialProc	Relevant	BlockList	1	1	0	117247	10	116757	1	814	117571
TRSEscan	1091	4	60.001	1	1023923566	7/15/2010	19:28:38	1	BlockProc	SessionList	2	2	1	7	NULL	NULL	NULL	NULL	7	2	7	Scenes	NULL	NULL	NULL	Both	1	4390	0	124647	10	120357	0	NULL	NULL	scene/s_191.bmp	NULL	NULL	NULL	NULL	NULL	NULL	Novel	SSFSSSFSFSSFFSFFFSFF	NULL	NULL	NULL	TrialProc	Relevant	BlockList	1	1	0	120247	10	119757	1	750	120507
TRSEscan	1091	4	60.001	1	1023923566	7/15/2010	19:28:38	1	BlockProc	SessionList	2	2	1	8	NULL	NULL	NULL	NULL	8	2	8	Faces	NULL	NULL	NULL	Both	2	2390	0	127647	10	125357	3	NULL	NULL	face/f_019.bmp	NULL	NULL	NULL	NULL	NULL	NULL	Repeat	SSFSSSFSFSSFFSFFFSFF	NULL	NULL	NULL	TrialProc	Relevant	BlockList	0	2	0	125247	10	124757	1	598	125355
TRSEscan	1091	4	60.001	1	1023923566	7/15/2010	19:28:38	1	BlockProc	SessionList	2	2	1	9	NULL	NULL	NULL	NULL	9	2	9	Scenes	NULL	NULL	NULL	Both	2	6390	0	134647	10	128357	1	NULL	NULL	scene/s_191.bmp	NULL	NULL	NULL	NULL	NULL	NULL	Repeat	SSFSSSFSFSSFFSFFFSFF	NULL	NULL	NULL	TrialProc	Relevant	BlockList	0	2	0	128247	10	127757	1	470	128227
TRSEscan	1091	4	60.001	1	1023923566	7/15/2010	19:28:38	1	BlockProc	SessionList	2	2	1	10	NULL	NULL	NULL	NULL	10	2	10	Faces	NULL	NULL	NULL	Both	2	4390	0	139647	10	135357	1	NULL	NULL	face/f_019.bmp	NULL	NULL	NULL	NULL	NULL	NULL	Repeat	SSFSSSFSFSSFFSFFFSFF	NULL	NULL	NULL	TrialProc	Relevant	BlockList	0	2	0	135247	10	134757		0	0
TRSEscan	1091	4	60.001	1	1023923566	7/15/2010	19:28:38	1	BlockProc	SessionList	2	2	1	11	NULL	NULL	NULL	NULL	11	2	11	Scenes	NULL	NULL	NULL	Both	1	6390	0	146647	10	140357	1	NULL	NULL	scene/s_367.bmp	NULL	NULL	NULL	NULL	NULL	NULL	Novel	SSFSSSFSFSSFFSFFFSFF	NULL	NULL	NULL	TrialProc	Relevant	BlockList	1	1	0	140247	10	139757	1	454	140211
TRSEscan	1091	4	60.001	1	1023923566	7/15/2010	19:28:38	1	BlockProc	SessionList	2	2	1	12	NULL	NULL	NULL	NULL	12	2	12	Scenes	NULL	NULL	NULL	Both	1	2390	0	149647	10	147357	0	NULL	NULL	scene/s_089.bmp	NULL	NULL	NULL	NULL	NULL	NULL	Novel	SSFSSSFSFSSFFSFFFSFF	NULL	NULL	NULL	TrialProc	Relevant	BlockList	1	1	0	147247	10	146757	1	622	147379
TRSEscan	1091	4	60.001	1	1023923566	7/15/2010	19:28:38	1	BlockProc	SessionList	2	2	1	13	NULL	NULL	NULL	NULL	13	2	13	Faces	NULL	NULL	NULL	Both	1	2390	0	152647	10	150357	2	NULL	NULL	face/m_094.bmp	NULL	NULL	NULL	NULL	NULL	NULL	Novel	SSFSSSFSFSSFFSFFFSFF	NULL	NULL	NULL	TrialProc	Relevant	BlockList	1	1	0	150247	10	149757	1	461	150218
TRSEscan	1091	4	60.001	1	1023923566	7/15/2010	19:28:38	1	BlockProc	SessionList	2	2	1	14	NULL	NULL	NULL	NULL	14	2	14	Faces	NULL	NULL	NULL	Both	1	6390	0	159646	10	153356	0	NULL	NULL	face/f_125.bmp	NULL	NULL	NULL	NULL	NULL	NULL	Novel	SSFSSSFSFSSFFSFFFSFF	NULL	NULL	NULL	TrialProc	Relevant	BlockList	1	1	0	153246	9	152756	1	566	153322
TRSEscan	1091	4	60.001	1	1023923566	7/15/2010	19:28:38	1	BlockProc	SessionList	2	2	1	15	NULL	NULL	NULL	NULL	15	2	15	Scenes	NULL	NULL	NULL	Both	1	4390	0	164646	10	160356	2	NULL	NULL	scene/s_197.bmp	NULL	NULL	NULL	NULL	NULL	NULL	Novel	SSFSSSFSFSSFFSFFFSFF	NULL	NULL	NULL	TrialProc	Relevant	BlockList	1	1	0	160246	10	159756	1	574	160330
TRSEscan	1091	4	60.001	1	1023923566	7/15/2010	19:28:38	1	BlockProc	SessionList	2	2	1	16	NULL	NULL	NULL	NULL	16	2	16	Faces	NULL	NULL	NULL	Both	2	6390	0	171646	10	165356	1	NULL	NULL	face/f_125.bmp	NULL	NULL	NULL	NULL	NULL	NULL	Repeat	SSFSSSFSFSSFFSFFFSFF	NULL	NULL	NULL	TrialProc	Relevant	BlockList	0	2	0	165246	10	164756	1	454	165210
TRSEscan	1091	4	60.001	1	1023923566	7/15/2010	19:28:38	1	BlockProc	SessionList	2	2	1	17	NULL	NULL	NULL	NULL	17	2	17	Faces	NULL	NULL	NULL	Both	1	2390	0	174646	10	172356	0	NULL	NULL	face/m_107.bmp	NULL	NULL	NULL	NULL	NULL	NULL	Novel	SSFSSSFSFSSFFSFFFSFF	NULL	NULL	NULL	TrialProc	Relevant	BlockList	1	1	0	172246	10	171756	1	574	172330
TRSEscan	1091	4	60.001	1	1023923566	7/15/2010	19:28:38	1	BlockProc	SessionList	2	2	1	18	NULL	NULL	NULL	NULL	18	2	18	Faces	NULL	NULL	NULL	Both	1	4390	0	179646	10	175356	0	NULL	NULL	face/f_091.bmp	NULL	NULL	NULL	NULL	NULL	NULL	Novel	SSFSSSFSFSSFFSFFFSFF	NULL	NULL	NULL	TrialProc	Relevant	BlockList	1	1	0	175246	10	174756	1	582	175338
TRSEscan	1091	4	60.001	1	1023923566	7/15/2010	19:28:38	1	BlockProc	SessionList	2	2	1	19	NULL	NULL	NULL	NULL	19	2	19	Scenes	NULL	NULL	NULL	Both	2	2390	0	182646	10	180356	3	NULL	NULL	scene/s_197.bmp	NULL	NULL	NULL	NULL	NULL	NULL	Repeat	SSFSSSFSFSSFFSFFFSFF	NULL	NULL	NULL	TrialProc	Relevant	BlockList	0	2	0	180246	10	179756	1	702	180458
TRSEscan	1091	4	60.001	1	1023923566	7/15/2010	19:28:38	1	BlockProc	SessionList	2	2	1	20	NULL	NULL	NULL	NULL	20	2	20	Faces	NULL	NULL	NULL	Both	1	4390	0	187646	10	183356	1	NULL	NULL	face/m_099.bmp	NULL	NULL	NULL	NULL	NULL	NULL	Novel	SSFSSSFSFSSFFSFFFSFF	NULL	NULL	NULL	TrialProc	Relevant	BlockList	1	1	0	183246	10	182756	1	494	183250
TRSEscan	1091	4	60.001	1	1023923566	7/15/2010	19:28:38	1	BlockProc	SessionList	2	2	1	21	NULL	NULL	NULL	NULL	21	2	21	Faces	NULL	NULL	NULL	Both	2	6390	0	194646	10	188356	0	NULL	NULL	face/m_099.bmp	NULL	NULL	NULL	NULL	NULL	NULL	Repeat	SSFSSSFSFSSFFSFFFSFF	NULL	NULL	NULL	TrialProc	Relevant	BlockList	1	2	0	188246	10	187756	2	654	188410
TRSEscan	1091	4	60.001	1	1023923566	7/15/2010	19:28:38	1	BlockProc	SessionList	2	2	1	22	NULL	NULL	NULL	NULL	22	2	22		NULL	NULL	NULL	Both			NULL	NULL	NULL	NULL		209646	207756		NULL	NULL	NULL	NULL	NULL	NULL			NULL	NULL	NULL	FeedbackProc		BlockList	NULL	NULL	NULL	NULL	NULL	NULL	NULL	NULL	NULL
TRSEscan	1091	4	60.001	1	1023923566	7/15/2010	19:28:38	2	BlockProc	SessionList	2	2	2	1	-999999	211362	10	209756	1	3	23		1	2	646	Faces			NULL	NULL	NULL	NULL		NULL	NULL		230369	1	213023	0	231362	230372			0	233262	231372	InstrProc		BlockList	NULL	NULL	NULL	NULL	NULL	NULL	NULL	NULL	NULL
TRSEscan	1091	4	60.001	1	1023923566	7/15/2010	19:28:38	2	BlockProc	SessionList	2	2	2	2	NULL	NULL	NULL	NULL	2	3	24	Scenes	NULL	NULL	NULL	Faces	1	2390	0	236262	10	233972	0	NULL	NULL	scene/s_152.bmp	NULL	NULL	NULL	NULL	NULL	NULL	Novel	SSFSSSFSFSSFFSFFFSFF	NULL	NULL	NULL	TrialProc	Irrelevant	BlockList	1	1	0	233862	10	233372	1	189	233561
TRSEscan	1091	4	60.001	1	1023923566	7/15/2010	19:28:38	2	BlockProc	SessionList	2	2	2	3	NULL	NULL	NULL	NULL	3	3	25	Scenes	NULL	NULL	NULL	Faces	1	4390	0	241262	10	236972	0	NULL	NULL	scene/s_152.bmp	NULL	NULL	NULL	NULL	NULL	NULL	Repeat	SSFSSSFSFSSFFSFFFSFF	NULL	NULL	NULL	TrialProc	Irrelevant	BlockList	1	1	0	236862	10	236372	1	269	236641
TRSEscan	1091	4	60.001	1	1023923566	7/15/2010	19:28:38	2	BlockProc	SessionList	2	2	2	4	NULL	NULL	NULL	NULL	4	3	26	Faces	NULL	NULL	NULL	Faces	1	6390	0	248262	10	241972	2	NULL	NULL	face/m_013.bmp	NULL	NULL	NULL	NULL	NULL	NULL	Novel	SSFSSSFSFSSFFSFFFSFF	NULL	NULL	NULL	TrialProc	Relevant	BlockList	1	1	0	241862	10	241372	1	285	241657
TRSEscan	1091	4	60.001	1	1023923566	7/15/2010	19:28:38	2	BlockProc	SessionList	2	2	2	5	NULL	NULL	NULL	NULL	5	3	27	Scenes	NULL	NULL	NULL	Faces	1	4390	0	253262	10	248972	1	NULL	NULL	scene/s_152.bmp	NULL	NULL	NULL	NULL	NULL	NULL	Repeat	SSFSSSFSFSSFFSFFFSFF	NULL	NULL	NULL	TrialProc	Irrelevant	BlockList	1	1	0	248862	10	248372	1	357	248729
TRSEscan	1091	4	60.001	1	1023923566	7/15/2010	19:28:38	2	BlockProc	SessionList	2	2	2	6	NULL	NULL	NULL	NULL	6	3	28	Scenes	NULL	NULL	NULL	Faces	1	2390	0	256262	10	253972	0	NULL	NULL	scene/s_443.bmp	NULL	NULL	NULL	NULL	NULL	NULL	Novel	SSFSSSFSFSSFFSFFFSFF	NULL	NULL	NULL	TrialProc	Irrelevant	BlockList	1	1	0	253862	10	253372	1	485	253857
TRSEscan	1091	4	60.001	1	1023923566	7/15/2010	19:28:38	2	BlockProc	SessionList	2	2	2	7	NULL	NULL	NULL	NULL	7	3	29	Scenes	NULL	NULL	NULL	Faces	1	4390	0	261262	10	256972	0	NULL	NULL	scene/s_194.bmp	NULL	NULL	NULL	NULL	NULL	NULL	Novel	SSFSSSFSFSSFFSFFFSFF	NULL	NULL	NULL	TrialProc	Irrelevant	BlockList	1	1	0	256862	10	256372	1	389	256761
TRSEscan	1091	4	60.001	1	1023923566	7/15/2010	19:28:38	2	BlockProc	SessionList	2	2	2	8	NULL	NULL	NULL	NULL	8	3	30	Faces	NULL	NULL	NULL	Faces	2	2390	0	264262	10	261972	3	NULL	NULL	face/m_013.bmp	NULL	NULL	NULL	NULL	NULL	NULL	Repeat	SSFSSSFSFSSFFSFFFSFF	NULL	NULL	NULL	TrialProc	Relevant	BlockList	1	2	0	261862	10	261372	2	741	262113
TRSEscan	1091	4	60.001	1	1023923566	7/15/2010	19:28:38	2	BlockProc	SessionList	2	2	2	9	NULL	NULL	NULL	NULL	9	3	31	Scenes	NULL	NULL	NULL	Faces	1	6390	0	271262	10	264972	1	NULL	NULL	scene/s_194.bmp	NULL	NULL	NULL	NULL	NULL	NULL	Repeat	SSFSSSFSFSSFFSFFFSFF	NULL	NULL	NULL	TrialProc	Irrelevant	BlockList	1	1	0	264862	10	264372	1	485	264857
TRSEscan	1091	4	60.001	1	1023923566	7/15/2010	19:28:38	2	BlockProc	SessionList	2	2	2	10	NULL	NULL	NULL	NULL	10	3	32	Faces	NULL	NULL	NULL	Faces	2	4390	0	276262	10	271972	1	NULL	NULL	face/m_013.bmp	NULL	NULL	NULL	NULL	NULL	NULL	Repeat	SSFSSSFSFSSFFSFFFSFF	NULL	NULL	NULL	TrialProc	Relevant	BlockList	1	2	0	271862	10	271372	2	861	272233
TRSEscan	1091	4	60.001	1	1023923566	7/15/2010	19:28:38	2	BlockProc	SessionList	2	2	2	11	NULL	NULL	NULL	NULL	11	3	33	Scenes	NULL	NULL	NULL	Faces	1	6390	0	283261	10	276971	1	NULL	NULL	scene/s_092.bmp	NULL	NULL	NULL	NULL	NULL	NULL	Novel	SSFSSSFSFSSFFSFFFSFF	NULL	NULL	NULL	TrialProc	Irrelevant	BlockList	1	1	0	276861	9	276371	1	478	276849
