ExperimentName	Subject	Session	Display.RefreshRate	Group	RandomSeed	SessionDate	SessionTime	Block	Procedure[Block]	Running[Block]	SessionList	SessionList.Cycle	SessionList.Sample	Trial	BlockInstr.OffsetDelay	BlockInstr.OffsetTime	BlockInstr.OnsetDelay	BlockInstr.OnsetTime	BlockList	BlockList.Cycle	BlockList.Sample	Category	Challenge.ACC	Challenge.RESP	Challenge.RT	Condition	CorrResp	Delay	DelayFixation.OffsetDelay	DelayFixation.OffsetTime	DelayFixation.OnsetDelay	DelayFixation.OnsetTime	Distractors	Feedback.OffsetTime	Feedback.OnsetTime	Filename	GetReady.OffsetTime	GetReady.OnsetDelay	GetReady.OnsetTime	Go.OffsetDelay	Go.OffsetTime	Go.OnsetTime	Novelty	Permutation	PostGoFixation.OffsetDelay	PostGoFixation.OffsetTime	PostGoFixation.OnsetTime	Procedure[Trial]	Relevance	Running[Trial]	Stim.ACC	Stim.CRESP	Stim.OffsetDelay	Stim.OffsetTime	Stim.OnsetDelay	Stim.OnsetTime	Stim.RESP	Stim.RT	Stim.RTTime
TRSEscan	1101	1	60.002	1	-179409043	7/23/2010	13:52:20	1	BlockProc	SessionList	2	1	2	1	-999999	120844	16	111180	1	2	1		1	2	7006	Faces			NULL	NULL	NULL	NULL		NULL	NULL		137755	1	128864	0	138753	137763			0	140653	138763	InstrProc		BlockList	NULL	NULL	NULL	NULL	NULL	NULL	NULL	NULL	NULL
TRSEscan	1101	1	60.002	1	-179409043	7/23/2010	13:52:20	1	BlockProc	SessionList	2	1	2	2	NULL	NULL	NULL	NULL	2	2	2	Scenes	NULL	NULL	NULL	Faces	1	4390	0	145653	10	141363	0	NULL	NULL	scene/s_364.bmp	NULL	NULL	NULL	NULL	NULL	NULL	Novel	SFFSFSSSFSSFSSFFFSFF	NULL	NULL	NULL	TrialProc	Irrelevant	BlockList	1	1	0	141253	10	140763	1	664	141427
TRSEscan	1101	1	60.002	1	-179409043	7/23/2010	13:52:20	1	BlockProc	SessionList	2	1	2	3	NULL	NULL	NULL	NULL	3	2	3	Faces	NULL	NULL	NULL	Faces	1	2390	0	148653	10	146363	1	NULL	NULL	face/m_120.bmp	NULL	NULL	NULL	NULL	NULL	NULL	Novel	SFFSFSSSFSSFSSFFFSFF	NULL	NULL	NULL	TrialProc	Relevant	BlockList	1	1	0	146253	10	145763	1	768	146531
TRSEscan	1101	1	60.002	1	-179409043	7/23/2010	13:52:20	1	BlockProc	SessionList	2	1	2	4	NULL	NULL	NULL	NULL	4	2	4	Faces	NULL	NULL	NULL	Faces	1	2390	0	151652	10	149362	0	NULL	NULL	face/m_014.bmp	NULL	NULL	NULL	NULL	NULL	NULL	Novel	SFFSFSSSFSSFSSFFFSFF	NULL	NULL	NULL	TrialProc	Relevant	BlockList	1	1	0	149252	9	148762	1	785	149547
TRSEscan	1101	1	60.002	1	-179409043	7/23/2010	13:52:20	1	BlockProc	SessionList	2	1	2	5	NULL	NULL	NULL	NULL	5	2	5	Scenes	NULL	NULL	NULL	Faces	1	4390	0	156652	10	152362	2	NULL	NULL	scene/s_200.bmp	NULL	NULL	NULL	NULL	NULL	NULL	Novel	SFFSFSSSFSSFSSFFFSFF	NULL	NULL	NULL	TrialProc	Irrelevant	BlockList	1	1	0	152252	10	151762	1	609	152371
TRSEscan	1101	1	60.002	1	-179409043	7/23/2010	13:52:20	1	BlockProc	SessionList	2	1	2	6	NULL	NULL	NULL	NULL	6	2	6	Faces	NULL	NULL	NULL	Faces	2	6390	0	163652	10	157362	1	NULL	NULL	face/m_014.bmp	NULL	NULL	NULL	NULL	NULL	NULL	Repeat	SFFSFSSSFSSFSSFFFSFF	NULL	NULL	NULL	TrialProc	Relevant	BlockList	0	2	0	157252	10	156762	1	545	157307
TRSEscan	1101	1	60.002	1	-179409043	7/23/2010	13:52:20	1	BlockProc	SessionList	2	1	2	7	NULL	NULL	NULL	NULL	7	2	7	Scenes	NULL	NULL	NULL	Faces	1	6390	0	170652	10	164362	1	NULL	NULL	scene/s_200.bmp	NULL	NULL	NULL	NULL	NULL	NULL	Repeat	SFFSFSSSFSSFSSFFFSFF	NULL	NULL	NULL	TrialProc	Irrelevant	BlockList	1	1	0	164252	10	163762	1	633	164395
TRSEscan	1101	1	60.002	1	-179409043	7/23/2010	13:52:20	1	BlockProc	SessionList	2	1	2	8	NULL	NULL	NULL	NULL	8	2	8	Scenes	NULL	NULL	NULL	Faces	1	4390	0	175652	10	171362	0	NULL	NULL	scene/s_004.bmp	NULL	NULL	NULL	NULL	NULL	NULL	Novel	SFFSFSSSFSSFSSFFFSFF	NULL	NULL	NULL	TrialProc	Irrelevant	BlockList	1	1	0	171252	10	170762	1	689	171451
TRSEscan	1101	1	60.002	1	-179409043	7/23/2010	13:52:20	1	BlockProc	SessionList	2	1	2	9	NULL	NULL	NULL	NULL	9	2	9	Scenes	NULL	NULL	NULL	Faces	1	2390	0	178652	10	176362	0	NULL	NULL	scene/s_004.bmp	NULL	NULL	NULL	NULL	NULL	NULL	Repeat	SFFSFSSSFSSFSSFFFSFF	NULL	NULL	NULL	TrialProc	Irrelevant	BlockList	1	1	0	176252	10	175762	1	584	176346
TRSEscan	1101	1	60.002	1	-179409043	7/23/2010	13:52:20	1	BlockProc	SessionList	2	1	2	10	NULL	NULL	NULL	NULL	10	2	10	Faces	NULL	NULL	NULL	Faces	1	4390	0	183652	10	179362	3	NULL	NULL	face/f_038.bmp	NULL	NULL	NULL	NULL	NULL	NULL	Novel	SFFSFSSSFSSFSSFFFSFF	NULL	NULL	NULL	TrialProc	Relevant	BlockList	1	1	0	179252	10	178762	1	896	179658
TRSEscan	1101	1	60.002	1	-179409043	7/23/2010	13:52:20	1	BlockProc	SessionList	2	1	2	11	NULL	NULL	NULL	NULL	11	2	11	Scenes	NULL	NULL	NULL	Faces	1	6390	0	190652	10	184362	1	NULL	NULL	scene/s_004.bmp	NULL	NULL	NULL	NULL	NULL	NULL	Repeat	SFFSFSSSFSSFSSFFFSFF	NULL	NULL	NULL	TrialProc	Irrelevant	BlockList	1	1	0	184252	10	183762	1	576	184338
TRSEscan	1101	1	60.002	1	-179409043	7/23/2010	13:52:20	1	BlockProc	SessionList	2	1	2	12	NULL	NULL	NULL	NULL	12	2	12	Scenes	NULL	NULL	NULL	Faces	1	2390	0	193651	10	191361	0	NULL	NULL	scene/s_020.bmp	NULL	NULL	NULL	NULL	NULL	NULL	Novel	SFFSFSSSFSSFSSFFFSFF	NULL	NULL	NULL	TrialProc	Irrelevant	BlockList	1	1	0	191251	9	190761	1	681	191442
TRSEscan	1101	1	60.002	1	-179409043	7/23/2010	13:52:20	1	BlockProc	SessionList	2	1	2	13	NULL	NULL	NULL	NULL	13	2	13	Faces	NULL	NULL	NULL	Faces	2	4390	0	198651	10	194361	2	NULL	NULL	face/f_038.bmp	NULL	NULL	NULL	NULL	NULL	NULL	Repeat	SFFSFSSSFSSFSSFFFSFF	NULL	NULL	NULL	TrialProc	Relevant	BlockList	1	2	0	194251	10	193761	2	681	194442
TRSEscan	1101	1	60.002	1	-179409043	7/23/2010	13:52:20	1	BlockProc	SessionList	2	1	2	14	NULL	NULL	NULL	NULL	14	2	14	Scenes	NULL	NULL	NULL	Faces	1	2390	0	201651	10	199361	1	NULL	NULL	scene/s_020.bmp	NULL	NULL	NULL	NULL	NULL	NULL	Repeat	SFFSFSSSFSSFSSFFFSFF	NULL	NULL	NULL	TrialProc	Irrelevant	BlockList	1	1	0	199251	10	198761	1	561	199322
TRSEscan	1101	1	60.002	1	-179409043	7/23/2010	13:52:20	1	BlockProc	SessionList	2	1	2	15	NULL	NULL	NULL	NULL	15	2	15	Scenes	NULL	NULL	NULL	Faces	1	6390	0	208651	10	202361	0	NULL	NULL	scene/s_442.bmp	NULL	NULL	NULL	NULL	NULL	NULL	Novel	SFFSFSSSFSSFSSFFFSFF	NULL	NULL	NULL	TrialProc	Irrelevant	BlockList	1	1	0	202251	10	201761	1	609	202370
TRSEscan	1101	1	60.002	1	-179409043	7/23/2010	13:52:20	1	BlockProc	SessionList	2	1	2	16	NULL	NULL	NULL	NULL	16	2	16	Faces	NULL	NULL	NULL	Faces	2	6390	0	215651	10	209361	2	NULL	NULL	face/f_038.bmp	NULL	NULL	NULL	NULL	NULL	NULL	Repeat	SFFSFSSSFSSFSSFFFSFF	NULL	NULL	NULL	TrialProc	Relevant	BlockList	0	2	0	209251	10	208761	1	1729	210490
TRSEscan	1101	1	60.002	1	-179409043	7/23/2010	13:52:20	1	BlockProc	SessionList	2	1	2	17	NULL	NULL	NULL	NULL	17	2	17	Faces	NULL	NULL	NULL	Faces	1	2390	0	218651	10	216361	0	NULL	NULL	face/f_012.bmp	NULL	NULL	NULL	NULL	NULL	NULL	Novel	SFFSFSSSFSSFSSFFFSFF	NULL	NULL	NULL	TrialProc	Relevant	BlockList	1	1	0	216251	10	215761	1	920	216681
TRSEscan	1101	1	60.002	1	-179409043	7/23/2010	13:52:20	1	BlockProc	SessionList	2	1	2	18	NULL	NULL	NULL	NULL	18	2	18	Faces	NULL	NULL	NULL	Faces	2	4390	0	223651	10	219361	0	NULL	NULL	face/f_012.bmp	NULL	NULL	NULL	NULL	NULL	NULL	Repeat	SFFSFSSSFSSFSSFFFSFF	NULL	NULL	NULL	TrialProc	Relevant	BlockList	1	2	0	219251	10	218761	2	1008	219769
TRSEscan	1101	1	60.002	1	-179409043	7/23/2010	13:52:20	1	BlockProc	SessionList	2	1	2	19	NULL	NULL	NULL	NULL	19	2	19	Scenes	NULL	NULL	NULL	Faces	1	2390	0	226651	10	224361	3	NULL	NULL	scene/s_404.bmp	NULL	NULL	NULL	NULL	NULL	NULL	Novel	SFFSFSSSFSSFSSFFFSFF	NULL	NULL	NULL	TrialProc	Irrelevant	BlockList	1	1	0	224251	10	223761	1	712	224473
TRSEscan	1101	1	60.002	1	-179409043	7/23/2010	13:52:20	1	BlockProc	SessionList	2	1	2	20	NULL	NULL	NULL	NULL	20	2	20	Faces	NULL	NULL	NULL	Faces	1	6390	0	233650	10	227360	1	NULL	NULL	face/f_030.bmp	NULL	NULL	NULL	NULL	NULL	NULL	Novel	SFFSFSSSFSSFSSFFFSFF	NULL	NULL	NULL	TrialProc	Relevant	BlockList	1	1	0	227250	9	226760	1	889	227649
TRSEscan	1101	1	60.002	1	-179409043	7/23/2010	13:52:20	1	BlockProc	SessionList	2	1	2	21	NULL	NULL	NULL	NULL	21	2	21	Faces	NULL	NULL	NULL	Faces	1	4390	0	238650	10	234360	0	NULL	NULL	face/m_116.bmp	NULL	NULL	NULL	NULL	NULL	NULL	Novel	SFFSFSSSFSSFSSFFFSFF	NULL	NULL	NULL	TrialProc	Relevant	BlockList	1	1	0	234250	10	233760	1	673	234433
TRSEscan	1101	1	60.002	1	-179409043	7/23/2010	13:52:20	1	BlockProc	SessionList	2	1	2	22	NULL	NULL	NULL	NULL	22	2	22		NULL	NULL	NULL	Faces			NULL	NULL	NULL	NULL		253650	251760		NULL	NULL	NULL	NULL	NULL	NULL			NULL	NULL	NULL	FeedbackProc		BlockList	NULL	NULL	NULL	NULL	NULL	NULL	NULL	NULL	NULL
TRSEscan	1101	1	60.002	1	-179409043	7/23/2010	13:52:20	2	BlockProc	SessionList	2	1	3	1	-999999	258640	10	253760	1	3	23		1	2	1501	Scenes			NULL	NULL	NULL	NULL		NULL	NULL		272880	1	261161	0	273883	272893			0	275783	273893	InstrProc		BlockList	NULL	NULL	NULL	NULL	NULL	NULL	NULL	NULL	NULL
TRSEscan	1101	1	60.002	1	-179409043	7/23/2010	13:52:20	2	BlockProc	SessionList	2	1	3	2	NULL	NULL	NULL	NULL	2	3	24	Scenes	NULL	NULL	NULL	Scenes	1	4390	0	280783	10	276493	0	NULL	NULL	scene/s_325.bmp	NULL	NULL	NULL	NULL	NULL	NULL	Novel	SFFSFSSSFSSFSSFFFSFF	NULL	NULL	NULL	TrialProc	Relevant	BlockList	1	1	0	276383	10	275893	1	603	276496
TRSEscan	1101	1	60.002	1	-179409043	7/23/2010	13:52:20	2	BlockProc	SessionList	2	1	3	3	NULL	NULL	NULL	NULL	3	3	25	Faces	NULL	NULL	NULL	Scenes	1	2390	0	283849	10	281559	1	NULL	NULL	face/f_114.bmp	NULL	NULL	NULL	NULL	NULL	NULL	Novel	SFFSFSSSFSSFSSFFFSFF	NULL	NULL	NULL	TrialProc	Irrelevant	BlockList	1	1	0	281449	76	280959	1	689	281648
TRSEscan	1101	1	60.002	1	-179409043	7/23/2010	13:52:20	2	BlockProc	SessionList	2	1	3	4	NULL	NULL	NULL	NULL	4	3	26	Faces	NULL	NULL	NULL	Scenes	1	2390	0	286849	10	284559	0	NULL	NULL	face/f_036.bmp	NULL	NULL	NULL	NULL	NULL	NULL	Novel	SFFSFSSSFSSFSSFFFSFF	NULL	NULL	NULL	TrialProc	Irrelevant	BlockList	1	1	0	284449	10	283959	1	561	284520
TRSEscan	1101	1	60.002	1	-179409043	7/23/2010	13:52:20	2	BlockProc	SessionList	2	1	3	5	NULL	NULL	NULL	NULL	5	3	27	Scenes	NULL	NULL	NULL	Scenes	1	4390	0	291849	10	287559	2	NULL	NULL	scene/s_189.bmp	NULL	NULL	NULL	NULL	NULL	NULL	Novel	SFFSFSSSFSSFSSFFFSFF	NULL	NULL	NULL	TrialProc	Relevant	BlockList	1	1	0	287449	10	286959	1	721	287680
TRSEscan	1101	1	60.002	1	-179409043	7/23/2010	13:52:20	2	BlockProc	SessionList	2	1	3	6	NULL	NULL	NULL	NULL	6	3	28	Faces	NULL	NULL	NULL	Scenes	1	6390	0	298849	10	292559	1	NULL	NULL	face/f_036.bmp	NULL	NULL	NULL	NULL	NULL	NULL	Repeat	SFFSFSSSFSSFSSFFFSFF	NULL	NULL	NULL	TrialProc	Irrelevant	BlockList	1	1	0	292449	10	291959	1	1040	292999
TRSEscan	1101	1	60.002	1	-179409043	7/23/2010	13:52:20	2	BlockProc	SessionList	2	1	3	7	NULL	NULL	NULL	NULL	7	3	29	Scenes	NULL	NULL	NULL	Scenes	2	6390	0	305849	10	299559	1	NULL	NULL	scene/s_189.bmp	NULL	NULL	NULL	NULL	NULL	NULL	Repeat	SFFSFSSSFSSFSSFFFSFF	NULL	NULL	NULL	TrialProc	Relevant	BlockList	1	2	0	299449	10	298959	2	712	299671
TRSEscan	1101	1	60.002	1	-179409043	7/23/2010	13:52:20	2	BlockProc	SessionList	2	1	3	8	NULL	NULL	NULL	NULL	8	3	30	Scenes	NULL	NULL	NULL	Scenes	1	4390	0	310849	10	306559	0	NULL	NULL	scene/s_409.bmp	NULL	NULL	NULL	NULL	NULL	NULL	Novel	SFFSFSSSFSSFSSFFFSFF	NULL	NULL	NULL	TrialProc	Relevant	BlockList	1	1	0	306449	10	305959	1	840	306799
TRSEscan	1101	1	60.002	1	-179409043	7/23/2010	13:52:20	2	BlockProc	SessionList	2	1	3	9	NULL	NULL	NULL	NULL	9	3	31	Scenes	NULL	NULL	NULL	Scenes	2	2390	0	313848	10	311558	0	NULL	NULL	scene/s_409.bmp	NULL	NULL	NULL	NULL	NULL	NULL	Repeat	SFFSFSSSFSSFSSFFFSFF	NULL	NULL	NULL	TrialProc	Relevant	BlockList	1	2	0	311448	9	310958	2	609	311567
TRSEscan	1101	1	60.002	1	-179409043	7/23/2010	13:52:20	2	BlockProc	SessionList	2	1	3	10	NULL	NULL	NULL	NULL	10	3	32	Faces	NULL	NULL	NULL	Scenes	1	4390	0	318848	10	314558	3	NULL	NULL	face/f_112.bmp	NULL	NULL	NULL	NULL	NULL	NULL	Novel	SFFSFSSSFSSFSSFFFSFF	NULL	NULL	NULL	TrialProc	Irrelevant	BlockList	1	1	0	314448	10	313958	1	609	314567
TRSEscan	1101	1	60.002	1	-179409043	7/23/2010	13:52:20	2	BlockProc	SessionList	2	1	3	11	NULL	NULL	NULL	NULL	11	3	33	Scenes	NULL	NULL	NULL	Scenes	2	6390	0	325848	10	319558	1	NULL	NULL	scene/s_409.bmp	NULL	NULL	NULL	NULL	NULL	NULL	Repeat	SFFSFSSSFSSFSSFFFSFF	NULL	NULL	NULL	TrialProc	Relevant	BlockList	1	2	0	319448	10	318958	2	641	319599
TRSEscan	1101	1	60.002	1	-179409043	7/23/2010	13:52:20	2	BlockProc	SessionList	2	1	3	12	NULL	NULL	NULL	NULL	12	3	34	Scenes	NULL	NULL	NULL	Scenes	1	2390	0	328848	10	326558	0	NULL	NULL	scene/s_371.bmp	NULL	NULL	NULL	NULL	NULL	NULL	Novel	SFFSFSSSFSSFSSFFFSFF	NULL	NULL	NULL	TrialProc	Relevant	BlockList	1	1	0	326448	10	325958	1	433	326391
TRSEscan	1101	1	60.002	1	-179409043	7/23/2010	13:52:20	2	BlockProc	SessionList	2	1	3	13	NULL	NULL	NULL	NULL	13	3	35	Faces	NULL	NULL	NULL	Scenes	1	4390	0	333848	10	329558	2	NULL	NULL	face/f_112.bmp	NULL	NULL	NULL	NULL	NULL	NULL	Repeat	SFFSFSSSFSSFSSFFFSFF	NULL	NULL	NULL	TrialProc	Irrelevant	BlockList	1	1	0	329448	10	328958	1	569	329527
TRSEscan	1101	1	60.002	1	-179409043	7/23/2010	13:52:20	2	BlockProc	SessionList	2	1	3	14	NULL	NULL	NULL	NULL	14	3	36	Scenes	NULL	NULL	NULL	Scenes	2	2390	0	336848	10	334558	1	NULL	NULL	scene/s_371.bmp	NULL	NULL	NULL	NULL	NULL	NULL	Repeat	SFFSFSSSFSSFSSFFFSFF	NULL	NULL	NULL	TrialProc	Relevant	BlockList	1	2	0	334448	10	333958	2	769	334727
TRSEscan	1101	1	60.002	1	-179409043	7/23/2010	13:52:20	2	BlockProc	SessionList	2	1	3	15	NULL	NULL	NULL	NULL	15	3	37	Scenes	NULL	NULL	NULL	Scenes	1	6390	0	343848	10	337558	0	NULL	NULL	scene/s_136.bmp	NULL	NULL	NULL	NULL	NULL	NULL	Novel	SFFSFSSSFSSFSSFFFSFF	NULL	NULL	NULL	TrialProc	Relevant	BlockList	1	1	0	337448	10	336958	1	640	337598
TRSEscan	1101	1	60.002	1	-179409043	7/23/2010	13:52:20	2	BlockProc	SessionList	2	1	3	16	NULL	NULL	NULL	NULL	16	3	38	Faces	NULL	NULL	NULL	Scenes	1	6390	0	350848	10	344558	2	NULL	NULL	face/f_112.bmp	NULL	NULL	NULL	NULL	NULL	NULL	Repeat	SFFSFSSSFSSFSSFFFSFF	NULL	NULL	NULL	TrialProc	Irrelevant	BlockList	1	1	0	344448	10	343958	1	488	344446
TRSEscan	1101	1	60.002	1	-179409043	7/23/2010	13:52:20	2	BlockProc	SessionList	2	1	3	17	NULL	NULL	NULL	NULL	17	3	39	Faces	NULL	NULL	NULL	Scenes	1	2390	0	353847	10	351557	0	NULL	NULL	face/m_135.bmp	NULL	NULL	NULL	NULL	NULL	NULL	Novel	SFFSFSSSFSSFSSFFFSFF	NULL	NULL	NULL	TrialProc	Irrelevant	BlockList	1	1	0	351447	9	350957	1	505	351462
TRSEscan	1101	1	60.002	1	-179409043	7/23/2010	13:52:20	2	BlockProc	SessionList	2	1	3	18	NULL	NULL	NULL	NULL	18	3	40	Faces	NULL	NULL	NULL	Scenes	1	4390	0	358847	10	354557	0	NULL	NULL	face/m_135.bmp	NULL	NULL	NULL	NULL	NULL	NULL	Repeat	SFFSFSSSFSSFSSFFFSFF	NULL	NULL	NULL	TrialProc	Irrelevant	BlockList	1	1	0	354447	10	353957	1	489	354446
TRSEscan	1101	1	60.002	1	-179409043	7/23/2010	13:52:20	2	BlockProc	SessionList	2	1	3	19	NULL	NULL	NULL	NULL	19	3	41	Scenes	NULL	NULL	NULL	Scenes	1	2390	0	361847	10	359557	3	NULL	NULL	scene/s_378.bmp	NULL	NULL	NULL	NULL	NULL	NULL	Novel	SFFSFSSSFSSFSSFFFSFF	NULL	NULL	NULL	TrialProc	Relevant	BlockList	1	1	0	359447	10	358957	1	649	359606
TRSEscan	1101	1	60.002	1	-179409043	7/23/2010	13:52:20	2	BlockProc	SessionList	2	1	3	20	NULL	NULL	NULL	NULL	20	3	42	Faces	NULL	NULL	NULL	Scenes	1	6390	0	368847	10	362557	1	NULL	NULL	face/m_053.bmp	NULL	NULL	NULL	NULL	NULL	NULL	Novel	SFFSFSSSFSSFSSFFFSFF	NULL	NULL	NULL	TrialProc	Irrelevant	BlockList	1	1	0	362447	10	361957	1	473	362430
TRSEscan	1101	1	60.002	1	-179409043	7/23/2010	13:52:20	2	BlockProc	SessionList	2	1	3	21	NULL	NULL	NULL	NULL	21	3	43	Faces	NULL	NULL	NULL	Scenes	1	4390	0	373847	10	369557	0	NULL	NULL	face/f_145.bmp	NULL	NULL	NULL	NULL	NULL	NULL	Novel	SFFSFSSSFSSFSSFFFSFF	NULL	NULL	NULL	TrialProc	Irrelevant	BlockList	1	1	0	369447	10	368957	1	481	369438
TRSEscan	1101	1	60.002	1	-179409043	7/23/2010	13:52:20	2	BlockProc	SessionList	2	1	3	22	NULL	NULL	NULL	NULL	22	3	44		NULL	NULL	NULL	Scenes			NULL	NULL	NULL	NULL		388847	386957		NULL	NULL	NULL	NULL	NULL	NULL			NULL	NULL	NULL	FeedbackProc		BlockList	NULL	NULL	NULL	NULL	NULL	NULL	NULL	NULL	NULL
TRSEscan	1101	1	60.002	1	-179409043	7/23/2010	13:52:20	3	BlockProc	SessionList	2	1	4	1	-999999	395333	9	388956	1	4	45		1	2	1673	Categorize			NULL	NULL	NULL	NULL		NULL	NULL		407181	1	398024	0	408179	407189			0	410079	408189	InstrProc		BlockList	NULL	NULL	NULL	NULL	NULL	NULL	NULL	NULL	NULL
TRSEscan	1101	1	60.002	1	-179409043	7/23/2010	13:52:20	3	BlockProc	SessionList	2	1	4	2	NULL	NULL	NULL	NULL	2	4	46	Scenes	NULL	NULL	NULL	Categorize	2	4390	0	415079	10	410789	0	NULL	NULL	scene/s_301.bmp	NULL	NULL	NULL	NULL	NULL	NULL	Novel	SFFSFSSSFSSFSSFFFSFF	NULL	NULL	NULL	TrialProc	Irrelevant	BlockList	1	2	0	410679	10	410189	2	528	410717
TRSEscan	1101	1	60.002	1	-179409043	7/23/2010	13:52:20	3	BlockProc	SessionList	2	1	4	3	NULL	NULL	NULL	NULL	3	4	47	Faces	NULL	NULL	NULL	Categorize	1	2390	0	418079	10	415789	1	NULL	NULL	face/m_055.bmp	NULL	NULL	NULL	NULL	NULL	NULL	Novel	SFFSFSSSFSSFSSFFFSFF	NULL	NULL	NULL	TrialProc	Irrelevant	BlockList	1	1	0	415679	10	415189	1	543	415732
TRSEscan	1101	1	60.002	1	-179409043	7/23/2010	13:52:20	3	BlockProc	SessionList	2	1	4	4	NULL	NULL	NULL	NULL	4	4	48	Faces	NULL	NULL	NULL	Categorize	1	2390	0	421079	10	418789	0	NULL	NULL	face/m_129.bmp	NULL	NULL	NULL	NULL	NULL	NULL	Novel	SFFSFSSSFSSFSSFFFSFF	NULL	NULL	NULL	TrialProc	Irrelevant	BlockList	1	1	0	418679	10	418189	1	399	418588
TRSEscan	1101	1	60.002	1	-179409043	7/23/2010	13:52:20	3	BlockProc	SessionList	2	1	4	5	NULL	NULL	NULL	NULL	5	4	49	Scenes	NULL	NULL	NULL	Categorize	2	4390	0	426079	10	421789	2	NULL	NULL	scene/s_141.bmp	NULL	NULL	NULL	NULL	NULL	NULL	Novel	SFFSFSSSFSSFSSFFFSFF	NULL	NULL	NULL	TrialProc	Irrelevant	BlockList	1	2	0	421679	10	421189	2	567	421756
TRSEscan	1101	1	60.002	1	-179409043	7/23/2010	13:52:20	3	BlockProc	SessionList	2	1	4	6	NULL	NULL	NULL	NULL	6	4	50	Faces	NULL	NULL	NULL	Categorize	1	6390	0	433079	10	426789	1	NULL	NULL	face/m_129.bmp	NULL	NULL	NULL	NULL	NULL	NULL	Repeat	SFFSFSSSFSSFSSFFFSFF	NULL	NULL	NULL	TrialProc	Irrelevant	BlockList	1	1	0	426679	10	426189	1	423	426612
TRSEscan	1101	1	60.002	1	-179409043	7/23/2010	13:52:20	3	BlockProc	SessionList	2	1	4	7	NULL	NULL	NULL	NULL	7	4	51	Scenes	NULL	NULL	NULL	Categorize	2	6390	0	440079	10	433789	1	NULL	NULL	scene/s_141.bmp	NULL	NULL	NULL	NULL	NULL	NULL	Repeat	SFFSFSSSFSSFSSFFFSFF	NULL	NULL	NULL	TrialProc	Irrelevant	BlockList	1	2	0	433679	10	433189	2	503	433692
TRSEscan	1101	1	60.002	1	-179409043	7/23/2010	13:52:20	3	BlockProc	SessionList	2	1	4	8	NULL	NULL	NULL	NULL	8	4	52	Scenes	NULL	NULL	NULL	Categorize	2	4390	0	445079	10	440789	0	NULL	NULL	scene/s_264.bmp	NULL	NULL	NULL	NULL	NULL	NULL	Novel	SFFSFSSSFSSFSSFFFSFF	NULL	NULL	NULL	TrialProc	Irrelevant	BlockList	1	2	0	440679	10	440189	2	511	440700
TRSEscan	1101	1	60.002	1	-179409043	7/23/2010	13:52:20	3	BlockProc	SessionList	2	1	4	9	NULL	NULL	NULL	NULL	9	4	53	Scenes	NULL	NULL	NULL	Categorize	2	2390	0	448078	10	445788	0	NULL	NULL	scene/s_264.bmp	NULL	NULL	NULL	NULL	NULL	NULL	Repeat	SFFSFSSSFSSFSSFFFSFF	NULL	NULL	NULL	TrialProc	Irrelevant	BlockList	1	2	0	445678	9	445188	2	464	445652
TRSEscan	1101	1	60.002	1	-179409043	7/23/2010	13:52:20	3	BlockProc	SessionList	2	1	4	10	NULL	NULL	NULL	NULL	10	4	54	Faces	NULL	NULL	NULL	Categorize	1	4390	0	453078	10	448788	3	NULL	NULL	face/f_135.bmp	NULL	NULL	NULL	NULL	NULL	NULL	Novel	SFFSFSSSFSSFSSFFFSFF	NULL	NULL	NULL	TrialProc	Irrelevant	BlockList	1	1	0	448678	10	448188	1	472	448660
TRSEscan	1101	1	60.002	1	-179409043	7/23/2010	13:52:20	3	BlockProc	SessionList	2	1	4	11	NULL	NULL	NULL	NULL	11	4	55	Scenes	NULL	NULL	NULL	Categorize	2	6390	0	460078	10	453788	1	NULL	NULL	scene/s_264.bmp	NULL	NULL	NULL	NULL	NULL	NULL	Repeat	SFFSFSSSFSSFSSFFFSFF	NULL	NULL	NULL	TrialProc	Irrelevant	BlockList	1	2	0	453678	10	453188	2	472	453660
TRSEscan	1101	1	60.002	1	-179409043	7/23/2010	13:52:20	3	BlockProc	SessionList	2	1	4	12	NULL	NULL	NULL	NULL	12	4	56	Scenes	NULL	NULL	NULL	Categorize	2	2390	0	463078	10	460788	0	NULL	NULL	scene/s_063.bmp	NULL	NULL	NULL	NULL	NULL	NULL	Novel	SFFSFSSSFSSFSSFFFSFF	NULL	NULL	NULL	TrialProc	Irrelevant	BlockList	1	2	0	460678	10	460188	2	383	460571
TRSEscan	1101	1	60.002	1	-179409043	7/23/2010	13:52:20	3	BlockProc	SessionList	2	1	4	13	NULL	NULL	NULL	NULL	13	4	57	Faces	NULL	NULL	NULL	Categorize	1	4390	0	468078	10	463788	2	NULL	NULL	face/f_135.bmp	NULL	NULL	NULL	NULL	NULL	NULL	Repeat	SFFSFSSSFSSFSSFFFSFF	NULL	NULL	NULL	TrialProc	Irrelevant	BlockList	1	1	0	463678	10	463188	1	455	463643
TRSEscan	1101	1	60.002	1	-179409043	7/23/2010	13:52:20	3	BlockProc	SessionList	2	1	4	14	NULL	NULL	NULL	NULL	14	4	58	Scenes	NULL	NULL	NULL	Categorize	2	2390	0	471078	10	468788	1	NULL	NULL	scene/s_063.bmp	NULL	NULL	NULL	NULL	NULL	NULL	Repeat	SFFSFSSSFSSFSSFFFSFF	NULL	NULL	NULL	TrialProc	Irrelevant	BlockList	1	2	0	468678	10	468188	2	439	468627
TRSEscan	1101	1	60.002	1	-179409043	7/23/2010	13:52:20	3	BlockProc	SessionList	2	1	4	15	NULL	NULL	NULL	NULL	15	4	59	Scenes	NULL	NULL	NULL	Categorize	2	6390	0	478078	10	471788	0	NULL	NULL	scene/s_439.bmp	NULL	NULL	NULL	NULL	NULL	NULL	Novel	SFFSFSSSFSSFSSFFFSFF	NULL	NULL	NULL	TrialProc	Irrelevant	BlockList	1	2	0	471678	10	471188	2	543	471731
TRSEscan	1101	1	60.002	1	-179409043	7/23/2010	13:52:20	3	BlockProc	SessionList	2	1	4	16	NULL	NULL	NULL	NULL	16	4	60	Faces	NULL	NULL	NULL	Categorize	1	6390	0	485078	10	478788	2	NULL	NULL	face/f_135.bmp	NULL	NULL	NULL	NULL	NULL	NULL	Repeat	SFFSFSSSFSSFSSFFFSFF	NULL	NULL	NULL	TrialProc	Irrelevant	BlockList	1	1	0	478678	10	478188	1	503	478691
TRSEscan	1101	1	60.002	1	-179409043	7/23/2010	13:52:20	3	BlockProc	SessionList	2	1	4	17	NULL	NULL	NULL	NULL	17	4	61	Faces	NULL	NULL	NULL	Categorize	1	2390	0	488077	10	485787	0	NULL	NULL	face/m_033.bmp	NULL	NULL	NULL	NULL	NULL	NULL	Novel	SFFSFSSSFSSFSSFFFSFF	NULL	NULL	NULL	TrialProc	Irrelevant	BlockList	1	1	0	485677	9	485187	1	496	485683
TRSEscan	1101	1	60.002	1	-179409043	7/23/2010	13:52:20	3	BlockProc	SessionList	2	1	4	18	NULL	NULL	NULL	NULL	18	4	62	Faces	NULL	NULL	NULL	Categorize	1	4390	0	493077	10	488787	0	NULL	NULL	face/m_033.bmp	NULL	NULL	NULL	NULL	NULL	NULL	Repeat	SFFSFSSSFSSFSSFFFSFF	NULL	NULL	NULL	TrialProc	Irrelevant	BlockList	1	1	0	488677	10	488187	1	392	488579
TRSEscan	1101	1	60.002	1	-179409043	7/23/2010	13:52:20	3	BlockProc	SessionList	2	1	4	19	NULL	NULL	NULL	NULL	19	4	63	Scenes	NULL	NULL	NULL	Categorize	2	2390	0	496077	10	493787	3	NULL	NULL	scene/s_172.bmp	NULL	NULL	NULL	NULL	NULL	NULL	Novel	SFFSFSSSFSSFSSFFFSFF	NULL	NULL	NULL	TrialProc	Irrelevant	BlockList	1	2	0	493677	10	493187	2	480	493667
TRSEscan	1101	1	60.002	1	-179409043	7/23/2010	13:52:20	3	BlockProc	SessionList	2	1	4	20	NULL	NULL	NULL	NULL	20	4	64	Faces	NULL	NULL	NULL	Categorize	1	6390	0	503077	10	496787	1	NULL	NULL	face/f_081.bmp	NULL	NULL	NULL	NULL	NULL	NULL	Novel	SFFSFSSSFSSFSSFFFSFF	NULL	NULL	NULL	TrialProc	Irrelevant	BlockList	1	1	0	496677	10	496187	1	479	496666
TRSEscan	1101	1	60.002	1	-179409043	7/23/2010	13:52:20	3	BlockProc	SessionList	2	1	4	21	NULL	NULL	NULL	NULL	21	4	65	Faces	NULL	NULL	NULL	Categorize	1	4390	0	508077	10	503787	0	NULL	NULL	face/m_035.bmp	NULL	NULL	NULL	NULL	NULL	NULL	Novel	SFFSFSSSFSSFSSFFFSFF	NULL	NULL	NULL	TrialProc	Irrelevant	BlockList	1	1	0	503677	10	503187	1	487	503674
TRSEscan	1101	1	60.002	1	-179409043	7/23/2010	13:52:20	3	BlockProc	SessionList	2	1	4	22	NULL	NULL	NULL	NULL	22	4	66		NULL	NULL	NULL	Categorize			NULL	NULL	NULL	NULL		523077	521187		NULL	NULL	NULL	NULL	NULL	NULL			NULL	NULL	NULL	FeedbackProc		BlockList	NULL	NULL	NULL	NULL	NULL	NULL	NULL	NULL	NULL
TRSEscan	1101	1	60.002	1	-179409043	7/23/2010	13:52:20	4	BlockProc	SessionList	2	1	5	1	-999999	527258	9	523186	1	5	67		1	2	1180	Both			NULL	NULL	NULL	NULL		NULL	NULL		547441	1	529454	0	548443	547453			0	550342	548452	InstrProc		BlockList	NULL	NULL	NULL	NULL	NULL	NULL	NULL	NULL	NULL
TRSEscan	1101	1	60.002	1	-179409043	7/23/2010	13:52:20	4	BlockProc	SessionList	2	1	5	2	NULL	NULL	NULL	NULL	2	5	68	Scenes	NULL	NULL	NULL	Both	1	4390	0	555342	10	551052	0	NULL	NULL	scene/s_165.bmp	NULL	NULL	NULL	NULL	NULL	NULL	Novel	SFFSFSSSFSSFSSFFFSFF	NULL	NULL	NULL	TrialProc	Relevant	BlockList	1	1	0	550942	10	550452	1	341	550793
TRSEscan	1101	1	60.002	1	-179409043	7/23/2010	13:52:20	4	BlockProc	SessionList	2	1	5	3	NULL	NULL	NULL	NULL	3	5	69	Faces	NULL	NULL	NULL	Both	1	2390	0	558342	10	556052	1	NULL	NULL	face/f_111.bmp	NULL	NULL	NULL	NULL	NULL	NULL	Novel	SFFSFSSSFSSFSSFFFSFF	NULL	NULL	NULL	TrialProc	Relevant	BlockList	1	1	0	555942	10	555452	1	421	555873
TRSEscan	1101	1	60.002	1	-179409043	7/23/2010	13:52:20	4	BlockProc	SessionList	2	1	5	4	NULL	NULL	NULL	NULL	4	5	70	Faces	NULL	NULL	NULL	Both	1	2390	0	561342	10	559052	0	NULL	NULL	face/f_139.bmp	NULL	NULL	NULL	NULL	NULL	NULL	Novel	SFFSFSSSFSSFSSFFFSFF	NULL	NULL	NULL	TrialProc	Relevant	BlockList	1	1	0	558942	10	558452	1	661	559113
TRSEscan	1101	1	60.002	1	-179409043	7/23/2010	13:52:20	4	BlockProc	SessionList	2	1	5	5	NULL	NULL	NULL	NULL	5	5	71	Scenes	NULL	NULL	NULL	Both	1	4390	0	566342	10	562052	2	NULL	NULL	scene/s_385.bmp	NULL	NULL	NULL	NULL	NULL	NULL	Novel	SFFSFSSSFSSFSSFFFSFF	NULL	NULL	NULL	TrialProc	Relevant	BlockList	1	1	0	561942	10	561452	1	845	562297
TRSEscan	1101	1	60.002	1	-179409043	7/23/2010	13:52:20	4	BlockProc	SessionList	2	1	5	6	NULL	NULL	NULL	NULL	6	5	72	Faces	NULL	NULL	NULL	Both	2	6390	0	573342	10	567052	1	NULL	NULL	face/f_139.bmp	NULL	NULL	NULL	NULL	NULL	NULL	Repeat	SFFSFSSSFSSFSSFFFSFF	NULL	NULL	NULL	TrialProc	Relevant	BlockList	1	2	0	566942	10	566452	2	685	567137
TRSEscan	1101	1	60.002	1	-179409043	7/23/2010	13:52:20	4	BlockProc	SessionList	2	1	5	7	NULL	NULL	NULL	NULL	7	5	73	Scenes	NULL	NULL	NULL	Both	2	6390	0	580342	10	574052	1	NULL	NULL	scene/s_385.bmp	NULL	NULL	NULL	NULL	NULL	NULL	Repeat	SFFSFSSSFSSFSSFFFSFF	NULL	NULL	NULL	TrialProc	Relevant	BlockList	1	2	0	573942	10	573452	2	661	574113
TRSEscan	1101	1	60.002	1	-179409043	7/23/2010	13:52:20	4	BlockProc	SessionList	2	1	5	8	NULL	NULL	NULL	NULL	8	5	74	Scenes	NULL	NULL	NULL	Both	1	4390	0	585342	10	581052	0	NULL	NULL	scene/s_050.bmp	NULL	NULL	NULL	NULL	NULL	NULL	Novel	SFFSFSSSFSSFSSFFFSFF	NULL	NULL	NULL	TrialProc	Relevant	BlockList	1	1	0	580942	10	580452	1	740	581192
TRSEscan	1101	1	60.002	1	-179409043	7/23/2010	13:52:20	4	BlockProc	SessionList	2	1	5	9	NULL	NULL	NULL	NULL	9	5	75	Scenes	NULL	NULL	NULL	Both	2	2390	0	588342	10	586052	0	NULL	NULL	scene/s_050.bmp	NULL	NULL	NULL	NULL	NULL	NULL	Repeat	SFFSFSSSFSSFSSFFFSFF	NULL	NULL	NULL	TrialProc	Relevant	BlockList	1	2	0	585942	10	585452	2	724	586176
TRSEscan	1101	1	60.002	1	-179409043	7/23/2010	13:52:20	4	BlockProc	SessionList	2	1	5	10	NULL	NULL	NULL	NULL	10	5	76	Faces	NULL	NULL	NULL	Both	1	4390	0	593341	10	589051	3	NULL	NULL	face/f_044.bmp	NULL	NULL	NULL	NULL	NULL	NULL	Novel	SFFSFSSSFSSFSSFFFSFF	NULL	NULL	NULL	TrialProc	Relevant	BlockList	1	1	0	588941	9	588451	1	653	589104
TRSEscan	1101	1	60.002	1	-179409043	7/23/2010	13:52:20	4	BlockProc	SessionList	2	1	5	11	NULL	NULL	NULL	NULL	11	5	77	Scenes	NULL	NULL	NULL	Both	2	6390	0	600341	10	594051	1	NULL	NULL	scene/s_050.bmp	NULL	NULL	NULL	NULL	NULL	NULL	Repeat	SFFSFSSSFSSFSSFFFSFF	NULL	NULL	NULL	TrialProc	Relevant	BlockList	1	2	0	593941	10	593451	2	645	594096
TRSEscan	1101	1	60.002	1	-179409043	7/23/2010	13:52:20	4	BlockProc	SessionList	2	1	5	12	NULL	NULL	NULL	NULL	12	5	78	Scenes	NULL	NULL	NULL	Both	1	2390	0	603341	10	601051	0	NULL	NULL	scene/s_273.bmp	NULL	NULL	NULL	NULL	NULL	NULL	Novel	SFFSFSSSFSSFSSFFFSFF	NULL	NULL	NULL	TrialProc	Relevant	BlockList	1	1	0	600941	10	600451	1	653	601104
TRSEscan	1101	1	60.002	1	-179409043	7/23/2010	13:52:20	4	BlockProc	SessionList	2	1	5	13	NULL	NULL	NULL	NULL	13	5	79	Faces	NULL	NULL	NULL	Both	2	4390	0	608341	10	604051	2	NULL	NULL	face/f_044.bmp	NULL	NULL	NULL	NULL	NULL	NULL	Repeat	SFFSFSSSFSSFSSFFFSFF	NULL	NULL	NULL	TrialProc	Relevant	BlockList	1	2	0	603941	10	603451	2	757	604208
TRSEscan	1101	1	60.002	1	-179409043	7/23/2010	13:52:20	4	BlockProc	SessionList	2	1	5	14	NULL	NULL	NULL	NULL	14	5	80	Scenes	NULL	NULL	NULL	Both	2	2390	0	611341	10	609051	1	NULL	NULL	scene/s_273.bmp	NULL	NULL	NULL	NULL	NULL	NULL	Repeat	SFFSFSSSFSSFSSFFFSFF	NULL	NULL	NULL	TrialProc	Relevant	BlockList	1	2	0	608941	10	608451	2	589	609040
TRSEscan	1101	1	60.002	1	-179409043	7/23/2010	13:52:20	4	BlockProc	SessionList	2	1	5	15	NULL	NULL	NULL	NULL	15	5	81	Scenes	NULL	NULL	NULL	Both	1	6390	0	618341	10	612051	0	NULL	NULL	scene/s_176.bmp	NULL	NULL	NULL	NULL	NULL	NULL	Novel	SFFSFSSSFSSFSSFFFSFF	NULL	NULL	NULL	TrialProc	Relevant	BlockList	1	1	0	611941	10	611451	1	709	612160
TRSEscan	1101	1	60.002	1	-179409043	7/23/2010	13:52:20	4	BlockProc	SessionList	2	1	5	16	NULL	NULL	NULL	NULL	16	5	82	Faces	NULL	NULL	NULL	Both	2	6390	0	625341	10	619051	2	NULL	NULL	face/f_044.bmp	NULL	NULL	NULL	NULL	NULL	NULL	Repeat	SFFSFSSSFSSFSSFFFSFF	NULL	NULL	NULL	TrialProc	Relevant	BlockList	1	2	0	618941	10	618451	2	669	619120
TRSEscan	1101	1	60.002	1	-179409043	7/23/2010	13:52:20	4	BlockProc	SessionList	2	1	5	17	NULL	NULL	NULL	NULL	17	5	83	Faces	NULL	NULL	NULL	Both	1	2390	0	628341	10	626051	0	NULL	NULL	face/m_083.bmp	NULL	NULL	NULL	NULL	NULL	NULL	Novel	SFFSFSSSFSSFSSFFFSFF	NULL	NULL	NULL	TrialProc	Relevant	BlockList	1	1	0	625941	10	625451	1	620	626071
TRSEscan	1101	1	60.002	1	-179409043	7/23/2010	13:52:20	4	BlockProc	SessionList	2	1	5	18	NULL	NULL	NULL	NULL	18	5	84	Faces	NULL	NULL	NULL	Both	2	4390	0	633340	9	629050	0	NULL	NULL	face/m_083.bmp	NULL	NULL	NULL	NULL	NULL	NULL	Repeat	SFFSFSSSFSSFSSFFFSFF	NULL	NULL	NULL	TrialProc	Relevant	BlockList	1	2	0	628941	10	628451	2	580	629031
TRSEscan	1101	1	60.002	1	-179409043	7/23/2010	13:52:20	4	BlockProc	SessionList	2	1	5	19	NULL	NULL	NULL	NULL	19	5	85	Scenes	NULL	NULL	NULL	Both	1	2390	0	636340	10	634050	3	NULL	NULL	scene/s_355.bmp	NULL	NULL	NULL	NULL	NULL	NULL	Novel	SFFSFSSSFSSFSSFFFSFF	NULL	NULL	NULL	TrialProc	Relevant	BlockList	1	1	0	633940	10	633450	1	589	634039
TRSEscan	1101	1	60.002	1	-179409043	7/23/2010	13:52:20	4	BlockProc	SessionList	2	1	5	20	NULL	NULL	NULL	NULL	20	5	86	Faces	NULL	NULL	NULL	Both	1	6390	0	643340	10	637050	1	NULL	NULL	face/f_142.bmp	NULL	NULL	NULL	NULL	NULL	NULL	Novel	SFFSFSSSFSSFSSFFFSFF	NULL	NULL	NULL	TrialProc	Relevant	BlockList	1	1	0	636940	10	636450	1	701	637151
TRSEscan	1101	1	60.002	1	-179409043	7/23/2010	13:52:20	4	BlockProc	SessionList	2	1	5	21	NULL	NULL	NULL	NULL	21	5	87	Faces	NULL	NULL	NULL	Both	1	4390	0	648340	10	644050	0	NULL	NULL	face/m_119.bmp	NULL	NULL	NULL	NULL	NULL	NULL	Novel	SFFSFSSSFSSFSSFFFSFF	NULL	NULL	NULL	TrialProc	Relevant	BlockList	1	1	0	643940	10	643450	1	533	643983
TRSEscan	1101	1	60.002	1	-179409043	7/23/2010	13:52:20	4	BlockProc	SessionList	2	1	5	22	NULL	NULL	NULL	NULL	22	5	88		NULL	NULL	NULL	Both			NULL	NULL	NULL	NULL		663340	661450		NULL	NULL	NULL	NULL	NULL	NULL			NULL	NULL	NULL	FeedbackProc		BlockList	NULL	NULL	NULL	NULL	NULL	NULL	NULL	NULL	NULL
TRSEscan	1101	2	60.002	1	1596002869	7/23/2010	14:03:55	1	BlockProc	SessionList	2	2	1	1	-999999	63256	1	57099	1	2	1		1	2	966	Scenes			NULL	NULL	NULL	NULL		NULL	NULL		74944	16	65249	0	75939	74949			0	77839	75949	InstrProc		BlockList	NULL	NULL	NULL	NULL	NULL	NULL	NULL	NULL	NULL
TRSEscan	1101	2	60.002	1	1596002869	7/23/2010	14:03:55	1	BlockProc	SessionList	2	2	1	2	NULL	NULL	NULL	NULL	2	2	2	Faces	NULL	NULL	NULL	Scenes	1	2390	0	80838	10	78548	0	NULL	NULL	face/m_102.bmp	NULL	NULL	NULL	NULL	NULL	NULL	Novel	FFSFFFSSFSSFSSSFSFFS	NULL	NULL	NULL	TrialProc	Irrelevant	BlockList	1	1	0	78438	9	77948	1	316	78264
TRSEscan	1101	2	60.002	1	1596002869	7/23/2010	14:03:55	1	BlockProc	SessionList	2	2	1	3	NULL	NULL	NULL	NULL	3	2	3	Faces	NULL	NULL	NULL	Scenes	1	4390	0	85838	10	81548	0	NULL	NULL	face/f_085.bmp	NULL	NULL	NULL	NULL	NULL	NULL	Novel	FFSFFFSSFSSFSSSFSFFS	NULL	NULL	NULL	TrialProc	Irrelevant	BlockList	1	1	0	81438	10	80948	1	484	81432
TRSEscan	1101	2	60.002	1	1596002869	7/23/2010	14:03:55	1	BlockProc	SessionList	2	2	1	4	NULL	NULL	NULL	NULL	4	2	4	Scenes	NULL	NULL	NULL	Scenes	1	6390	0	92838	10	86548	2	NULL	NULL	scene/s_185.bmp	NULL	NULL	NULL	NULL	NULL	NULL	Novel	FFSFFFSSFSSFSSSFSFFS	NULL	NULL	NULL	TrialProc	Relevant	BlockList	1	1	0	86438	10	85948	1	508	86456
TRSEscan	1101	2	60.002	1	1596002869	7/23/2010	14:03:55	1	BlockProc	SessionList	2	2	1	5	NULL	NULL	NULL	NULL	5	2	5	Faces	NULL	NULL	NULL	Scenes	1	4390	0	97838	10	93548	1	NULL	NULL	face/f_085.bmp	NULL	NULL	NULL	NULL	NULL	NULL	Repeat	FFSFFFSSFSSFSSSFSFFS	NULL	NULL	NULL	TrialProc	Irrelevant	BlockList	1	1	0	93438	10	92948	1	539	93487
TRSEscan	1101	2	60.002	1	1596002869	7/23/2010	14:03:55	1	BlockProc	SessionList	2	2	1	6	NULL	NULL	NULL	NULL	6	2	6	Faces	NULL	NULL	NULL	Scenes	1	2390	0	100838	10	98548	0	NULL	NULL	face/f_085.bmp	NULL	NULL	NULL	NULL	NULL	NULL	Repeat	FFSFFFSSFSSFSSSFSFFS	NULL	NULL	NULL	TrialProc	Irrelevant	BlockList	1	1	0	98438	10	97948	1	371	98319
TRSEscan	1101	2	60.002	1	1596002869	7/23/2010	14:03:55	1	BlockProc	SessionList	2	2	1	7	NULL	NULL	NULL	NULL	7	2	7	Faces	NULL	NULL	NULL	Scenes	1	6390	0	107838	10	101548	0	NULL	NULL	face/m_047.bmp	NULL	NULL	NULL	NULL	NULL	NULL	Novel	FFSFFFSSFSSFSSSFSFFS	NULL	NULL	NULL	TrialProc	Irrelevant	BlockList	1	1	0	101438	10	100948	1	387	101335
TRSEscan	1101	2	60.002	1	1596002869	7/23/2010	14:03:55	1	BlockProc	SessionList	2	2	1	8	NULL	NULL	NULL	NULL	8	2	8	Scenes	NULL	NULL	NULL	Scenes	1	2390	0	110838	10	108548	3	NULL	NULL	scene/s_216.bmp	NULL	NULL	NULL	NULL	NULL	NULL	Novel	FFSFFFSSFSSFSSSFSFFS	NULL	NULL	NULL	TrialProc	Relevant	BlockList	0	1	0	108438	10	107948	2	603	108551
TRSEscan	1101	2	60.002	1	1596002869	7/23/2010	14:03:55	1	BlockProc	SessionList	2	2	1	9	NULL	NULL	NULL	NULL	9	2	9	Scenes	NULL	NULL	NULL	Scenes	2	4390	0	115838	10	111548	0	NULL	NULL	scene/s_216.bmp	NULL	NULL	NULL	NULL	NULL	NULL	Repeat	FFSFFFSSFSSFSSSFSFFS	NULL	NULL	NULL	TrialProc	Relevant	BlockList	1	2	0	111438	10	110948	2	819	111767
TRSEscan	1101	2	60.002	1	1596002869	7/23/2010	14:03:55	1	BlockProc	SessionList	2	2	1	10	NULL	NULL	NULL	NULL	10	2	10	Faces	NULL	NULL	NULL	Scenes	1	2390	0	118838	10	116548	2	NULL	NULL	face/m_047.bmp	NULL	NULL	NULL	NULL	NULL	NULL	Repeat	FFSFFFSSFSSFSSSFSFFS	NULL	NULL	NULL	TrialProc	Irrelevant	BlockList	1	1	0	116438	10	115948	1	539	116487
TRSEscan	1101	2	60.002	1	1596002869	7/23/2010	14:03:55	1	BlockProc	SessionList	2	2	1	11	NULL	NULL	NULL	NULL	11	2	11	Scenes	NULL	NULL	NULL	Scenes	2	4390	0	123837	10	119547	1	NULL	NULL	scene/s_216.bmp	NULL	NULL	NULL	NULL	NULL	NULL	Repeat	FFSFFFSSFSSFSSSFSFFS	NULL	NULL	NULL	TrialProc	Relevant	BlockList	1	2	0	119437	9	118947	2	1484	120431
TRSEscan	1101	2	60.002	1	1596002869	7/23/2010	14:03:55	1	BlockProc	SessionList	2	2	1	12	NULL	NULL	NULL	NULL	12	2	12	Scenes	NULL	NULL	NULL	Scenes	1	6390	0	130837	10	124547	0	NULL	NULL	scene/s_316.bmp	NULL	NULL	NULL	NULL	NULL	NULL	Novel	FFSFFFSSFSSFSSSFSFFS	NULL	NULL	NULL	TrialProc	Relevant	BlockList	1	1	0	124437	10	123947	1	764	124711
TRSEscan	1101	2	60.002	1	1596002869	7/23/2010	14:03:55	1	BlockProc	SessionList	2	2	1	13	NULL	NULL	NULL	NULL	13	2	13	Faces	NULL	NULL	NULL	Scenes	1	4390	0	135837	10	131547	2	NULL	NULL	face/m_010.bmp	NULL	NULL	NULL	NULL	NULL	NULL	Novel	FFSFFFSSFSSFSSSFSFFS	NULL	NULL	NULL	TrialProc	Irrelevant	BlockList	1	1	0	131437	10	130947	1	531	131478
TRSEscan	1101	2	60.002	1	1596002869	7/23/2010	14:03:55	1	BlockProc	SessionList	2	2	1	14	NULL	NULL	NULL	NULL	14	2	14	Scenes	NULL	NULL	NULL	Scenes	2	2390	0	138837	10	136547	1	NULL	NULL	scene/s_316.bmp	NULL	NULL	NULL	NULL	NULL	NULL	Repeat	FFSFFFSSFSSFSSSFSFFS	NULL	NULL	NULL	TrialProc	Relevant	BlockList	1	2	0	136437	10	135947	2	635	136582
TRSEscan	1101	2	60.002	1	1596002869	7/23/2010	14:03:55	1	BlockProc	SessionList	2	2	1	15	NULL	NULL	NULL	NULL	15	2	15	Scenes	NULL	NULL	NULL	Scenes	1	6390	0	145837	10	139547	0	NULL	NULL	scene/s_049.bmp	NULL	NULL	NULL	NULL	NULL	NULL	Novel	FFSFFFSSFSSFSSSFSFFS	NULL	NULL	NULL	TrialProc	Relevant	BlockList	1	1	0	139437	10	138947	1	763	139710
TRSEscan	1101	2	60.002	1	1596002869	7/23/2010	14:03:55	1	BlockProc	SessionList	2	2	1	16	NULL	NULL	NULL	NULL	16	2	16	Scenes	NULL	NULL	NULL	Scenes	1	4390	0	150837	10	146547	0	NULL	NULL	scene/s_166.bmp	NULL	NULL	NULL	NULL	NULL	NULL	Novel	FFSFFFSSFSSFSSSFSFFS	NULL	NULL	NULL	TrialProc	Relevant	BlockList	1	1	0	146437	10	145947	1	571	146518
TRSEscan	1101	2	60.002	1	1596002869	7/23/2010	14:03:55	1	BlockProc	SessionList	2	2	1	17	NULL	NULL	NULL	NULL	17	2	17	Faces	NULL	NULL	NULL	Scenes	1	6390	0	157837	10	151547	3	NULL	NULL	face/m_049.bmp	NULL	NULL	NULL	NULL	NULL	NULL	Novel	FFSFFFSSFSSFSSSFSFFS	NULL	NULL	NULL	TrialProc	Irrelevant	BlockList	1	1	0	151437	10	150947	1	459	151406
TRSEscan	1101	2	60.002	1	1596002869	7/23/2010	14:03:55	1	BlockProc	SessionList	2	2	1	18	NULL	NULL	NULL	NULL	18	2	18	Scenes	NULL	NULL	NULL	Scenes	2	2390	0	160836	10	158546	1	NULL	NULL	scene/s_166.bmp	NULL	NULL	NULL	NULL	NULL	NULL	Repeat	FFSFFFSSFSSFSSSFSFFS	NULL	NULL	NULL	TrialProc	Relevant	BlockList	1	2	0	158436	9	157946	2	724	158670
TRSEscan	1101	2	60.002	1	1596002869	7/23/2010	14:03:55	1	BlockProc	SessionList	2	2	1	19	NULL	NULL	NULL	NULL	19	2	19	Faces	NULL	NULL	NULL	Scenes	1	2390	0	163836	10	161546	1	NULL	NULL	face/m_049.bmp	NULL	NULL	NULL	NULL	NULL	NULL	Repeat	FFSFFFSSFSSFSSSFSFFS	NULL	NULL	NULL	TrialProc	Irrelevant	BlockList	1	1	0	161436	10	160946	1	460	161406
TRSEscan	1101	2	60.002	1	1596002869	7/23/2010	14:03:55	1	BlockProc	SessionList	2	2	1	20	NULL	NULL	NULL	NULL	20	2	20	Faces	NULL	NULL	NULL	Scenes	1	6390	0	170836	10	164546	0	NULL	NULL	face/f_003.bmp	NULL	NULL	NULL	NULL	NULL	NULL	Novel	FFSFFFSSFSSFSSSFSFFS	NULL	NULL	NULL	TrialProc	Irrelevant	BlockList	1	1	0	164436	10	163946	1	484	164430
TRSEscan	1101	2	60.002	1	1596002869	7/23/2010	14:03:55	1	BlockProc	SessionList	2	2	1	21	NULL	NULL	NULL	NULL	21	2	21	Scenes	NULL	NULL	NULL	Scenes	1	4390	0	175836	10	171546	2	NULL	NULL	scene/s_168.bmp	NULL	NULL	NULL	NULL	NULL	NULL	Novel	FFSFFFSSFSSFSSSFSFFS	NULL	NULL	NULL	TrialProc	Relevant	BlockList	1	1	0	171436	10	170946	1	563	171509
TRSEscan	1101	2	60.002	1	1596002869	7/23/2010	14:03:55	1	BlockProc	SessionList	2	2	1	22	NULL	NULL	NULL	NULL	22	2	22		NULL	NULL	NULL	Scenes			NULL	NULL	NULL	NULL		190836	188946		NULL	NULL	NULL	NULL	NULL	NULL			NULL	NULL	NULL	FeedbackProc		BlockList	NULL	NULL	NULL	NULL	NULL	NULL	NULL	NULL	NULL
TRSEscan	1101	2	60.002	1	1596002869	7/23/2010	14:03:55	2	BlockProc	SessionList	2	2	2	1	-999999	193765	10	190946	1	3	23		1	2	1322	Categorize			NULL	NULL	NULL	NULL		NULL	NULL		209693	1	196113	0	210685	209695			0	212585	210695	InstrProc		BlockList	NULL	NULL	NULL	NULL	NULL	NULL	NULL	NULL	NULL
TRSEscan	1101	2	60.002	1	1596002869	7/23/2010	14:03:55	2	BlockProc	SessionList	2	2	2	2	NULL	NULL	NULL	NULL	2	3	24	Faces	NULL	NULL	NULL	Categorize	1	2390	0	215585	10	213295	0	NULL	NULL	face/f_020.bmp	NULL	NULL	NULL	NULL	NULL	NULL	Novel	FFSFFFSSFSSFSSSFSFFS	NULL	NULL	NULL	TrialProc	Irrelevant	BlockList	1	1	0	213185	10	212695	1	397	213092
TRSEscan	1101	2	60.002	1	1596002869	7/23/2010	14:03:55	2	BlockProc	SessionList	2	2	2	3	NULL	NULL	NULL	NULL	3	3	25	Faces	NULL	NULL	NULL	Categorize	1	4390	0	220585	10	216295	0	NULL	NULL	face/m_043.bmp	NULL	NULL	NULL	NULL	NULL	NULL	Novel	FFSFFFSSFSSFSSSFSFFS	NULL	NULL	NULL	TrialProc	Irrelevant	BlockList	1	1	0	216185	10	215695	1	389	216084
TRSEscan	1101	2	60.002	1	1596002869	7/23/2010	14:03:55	2	BlockProc	SessionList	2	2	2	4	NULL	NULL	NULL	NULL	4	3	26	Scenes	NULL	NULL	NULL	Categorize	2	6390	0	227585	10	221295	2	NULL	NULL	scene/s_234.bmp	NULL	NULL	NULL	NULL	NULL	NULL	Novel	FFSFFFSSFSSFSSSFSFFS	NULL	NULL	NULL	TrialProc	Irrelevant	BlockList	1	2	0	221185	10	220695	2	421	221116
TRSEscan	1101	2	60.002	1	1596002869	7/23/2010	14:03:55	2	BlockProc	SessionList	2	2	2	5	NULL	NULL	NULL	NULL	5	3	27	Faces	NULL	NULL	NULL	Categorize	1	4390	0	232585	10	228295	1	NULL	NULL	face/m_043.bmp	NULL	NULL	NULL	NULL	NULL	NULL	Repeat	FFSFFFSSFSSFSSSFSFFS	NULL	NULL	NULL	TrialProc	Irrelevant	BlockList	1	1	0	228185	10	227695	1	621	228316
TRSEscan	1101	2	60.002	1	1596002869	7/23/2010	14:03:55	2	BlockProc	SessionList	2	2	2	6	NULL	NULL	NULL	NULL	6	3	28	Faces	NULL	NULL	NULL	Categorize	1	2390	0	235585	10	233295	0	NULL	NULL	face/m_043.bmp	NULL	NULL	NULL	NULL	NULL	NULL	Repeat	FFSFFFSSFSSFSSSFSFFS	NULL	NULL	NULL	TrialProc	Irrelevant	BlockList	1	1	0	233185	10	232695	1	397	233092
TRSEscan	1101	2	60.002	1	1596002869	7/23/2010	14:03:55	2	BlockProc	SessionList	2	2	2	7	NULL	NULL	NULL	NULL	7	3	29	Faces	NULL	NULL	NULL	Categorize	1	6390	0	242585	10	236295	0	NULL	NULL	face/f_141.bmp	NULL	NULL	NULL	NULL	NULL	NULL	Novel	FFSFFFSSFSSFSSSFSFFS	NULL	NULL	NULL	TrialProc	Irrelevant	BlockList	1	1	0	236185	10	235695	1	517	236212
TRSEscan	1101	2	60.002	1	1596002869	7/23/2010	14:03:55	2	BlockProc	SessionList	2	2	2	8	NULL	NULL	NULL	NULL	8	3	30	Scenes	NULL	NULL	NULL	Categorize	2	2390	0	245584	10	243294	3	NULL	NULL	scene/s_383.bmp	NULL	NULL	NULL	NULL	NULL	NULL	Novel	FFSFFFSSFSSFSSSFSFFS	NULL	NULL	NULL	TrialProc	Irrelevant	BlockList	1	2	0	243184	9	242694	2	558	243252
TRSEscan	1101	2	60.002	1	1596002869	7/23/2010	14:03:55	2	BlockProc	SessionList	2	2	2	9	NULL	NULL	NULL	NULL	9	3	31	Scenes	NULL	NULL	NULL	Categorize	2	4390	0	250584	10	246294	0	NULL	NULL	scene/s_383.bmp	NULL	NULL	NULL	NULL	NULL	NULL	Repeat	FFSFFFSSFSSFSSSFSFFS	NULL	NULL	NULL	TrialProc	Irrelevant	BlockList	1	2	0	246184	10	245694	2	398	246092
TRSEscan	1101	2	60.002	1	1596002869	7/23/2010	14:03:55	2	BlockProc	SessionList	2	2	2	10	NULL	NULL	NULL	NULL	10	3	32	Faces	NULL	NULL	NULL	Categorize	1	2390	0	253584	10	251294	2	NULL	NULL	face/f_141.bmp	NULL	NULL	NULL	NULL	NULL	NULL	Repeat	FFSFFFSSFSSFSSSFSFFS	NULL	NULL	NULL	TrialProc	Irrelevant	BlockList	1	1	0	251184	10	250694	1	573	251267
TRSEscan	1101	2	60.002	1	1596002869	7/23/2010	14:03:55	2	BlockProc	SessionList	2	2	2	11	NULL	NULL	NULL	NULL	11	3	33	Scenes	NULL	NULL	NULL	Categorize	2	4390	0	258584	10	254294	1	NULL	NULL	scene/s_383.bmp	NULL	NULL	NULL	NULL	NULL	NULL	Repeat	FFSFFFSSFSSFSSSFSFFS	NULL	NULL	NULL	TrialProc	Irrelevant	BlockList	1	2	0	254184	10	253694	2	509	254203
TRSEscan	1101	2	60.002	1	1596002869	7/23/2010	14:03:55	2	BlockProc	SessionList	2	2	2	12	NULL	NULL	NULL	NULL	12	3	34	Scenes	NULL	NULL	NULL	Categorize	2	6390	0	265584	10	259294	0	NULL	NULL	scene/s_043.bmp	NULL	NULL	NULL	NULL	NULL	NULL	Novel	FFSFFFSSFSSFSSSFSFFS	NULL	NULL	NULL	TrialProc	Irrelevant	BlockList	1	2	0	259184	10	258694	2	453	259147
TRSEscan	1101	2	60.002	1	1596002869	7/23/2010	14:03:55	2	BlockProc	SessionList	2	2	2	13	NULL	NULL	NULL	NULL	13	3	35	Faces	NULL	NULL	NULL	Categorize	1	4390	0	270584	10	266294	2	NULL	NULL	face/m_088.bmp	NULL	NULL	NULL	NULL	NULL	NULL	Novel	FFSFFFSSFSSFSSSFSFFS	NULL	NULL	NULL	TrialProc	Irrelevant	BlockList	1	1	0	266184	10	265694	1	437	266131
TRSEscan	1101	2	60.002	1	1596002869	7/23/2010	14:03:55	2	BlockProc	SessionList	2	2	2	14	NULL	NULL	NULL	NULL	14	3	36	Scenes	NULL	NULL	NULL	Categorize	2	2390	0	273584	10	271294	1	NULL	NULL	scene/s_043.bmp	NULL	NULL	NULL	NULL	NULL	NULL	Repeat	FFSFFFSSFSSFSSSFSFFS	NULL	NULL	NULL	TrialProc	Irrelevant	BlockList	0	2	0	271184	10	270694	1	445	271139
TRSEscan	1101	2	60.002	1	1596002869	7/23/2010	14:03:55	2	BlockProc	SessionList	2	2	2	15	NULL	NULL	NULL	NULL	15	3	37	Scenes	NULL	NULL	NULL	Categorize	2	6390	0	280584	10	274294	0	NULL	NULL	scene/s_156.bmp	NULL	NULL	NULL	NULL	NULL	NULL	Novel	FFSFFFSSFSSFSSSFSFFS	NULL	NULL	NULL	TrialProc	Irrelevant	BlockList	1	2	0	274184	10	273694	2	525	274219
TRSEscan	1101	2	60.002	1	1596002869	7/23/2010	14:03:55	2	BlockProc	SessionList	2	2	2	16	NULL	NULL	NULL	NULL	16	3	38	Scenes	NULL	NULL	NULL	Categorize	2	4390	0	285583	10	281293	0	NULL	NULL	scene/s_334.bmp	NULL	NULL	NULL	NULL	NULL	NULL	Novel	FFSFFFSSFSSFSSSFSFFS	NULL	NULL	NULL	TrialProc	Irrelevant	BlockList	1	2	0	281183	9	280693	2	582	281275
TRSEscan	1101	2	60.002	1	1596002869	7/23/2010	14:03:55	2	BlockProc	SessionList	2	2	2	17	NULL	NULL	NULL	NULL	17	3	39	Faces	NULL	NULL	NULL	Categorize	1	6390	0	292583	10	286293	3	NULL	NULL	face/f_041.bmp	NULL	NULL	NULL	NULL	NULL	NULL	Novel	FFSFFFSSFSSFSSSFSFFS	NULL	NULL	NULL	TrialProc	Irrelevant	BlockList	1	1	0	286183	10	285693	1	518	286211
TRSEscan	1101	2	60.002	1	1596002869	7/23/2010	14:03:55	2	BlockProc	SessionList	2	2	2	18	NULL	NULL	NULL	NULL	18	3	40	Scenes	NULL	NULL	NULL	Categorize	2	2390	0	295583	10	293293	1	NULL	NULL	scene/s_334.bmp	NULL	NULL	NULL	NULL	NULL	NULL	Repeat	FFSFFFSSFSSFSSSFSFFS	NULL	NULL	NULL	TrialProc	Irrelevant	BlockList	1	2	0	293183	10	292693	2	461	293154
TRSEscan	1101	2	60.002	1	1596002869	7/23/2010	14:03:55	2	BlockProc	SessionList	2	2	2	19	NULL	NULL	NULL	NULL	19	3	41	Faces	NULL	NULL	NULL	Categorize	1	2390	0	298583	10	296293	1	NULL	NULL	face/f_041.bmp	NULL	NULL	NULL	NULL	NULL	NULL	Repeat	FFSFFFSSFSSFSSSFSFFS	NULL	NULL	NULL	TrialProc	Irrelevant	BlockList	1	1	0	296183	10	295693	1	525	296218
TRSEscan	1101	2	60.002	1	1596002869	7/23/2010	14:03:55	2	BlockProc	SessionList	2	2	2	20	NULL	NULL	NULL	NULL	20	3	42	Faces	NULL	NULL	NULL	Categorize	1	6390	0	305583	10	299293	0	NULL	NULL	face/m_147.bmp	NULL	NULL	NULL	NULL	NULL	NULL	Novel	FFSFFFSSFSSFSSSFSFFS	NULL	NULL	NULL	TrialProc	Irrelevant	BlockList	1	1	0	299183	10	298693	1	557	299250
TRSEscan	1101	2	60.002	1	1596002869	7/23/2010	14:03:55	2	BlockProc	SessionList	2	2	2	21	NULL	NULL	NULL	NULL	21	3	43	Scenes	NULL	NULL	NULL	Categorize	2	4390	0	310583	10	306293	2	NULL	NULL	scene/s_163.bmp	NULL	NULL	NULL	NULL	NULL	NULL	Novel	FFSFFFSSFSSFSSSFSFFS	NULL	NULL	NULL	TrialProc	Irrelevant	BlockList	1	2	0	306183	10	305693	2	685	306378
TRSEscan	1101	2	60.002	1	1596002869	7/23/2010	14:03:55	2	BlockProc	SessionList	2	2	2	22	NULL	NULL	NULL	NULL	22	3	44		NULL	NULL	NULL	Categorize			NULL	NULL	NULL	NULL		325582	323692		NULL	NULL	NULL	NULL	NULL	NULL			NULL	NULL	NULL	FeedbackProc		BlockList	NULL	NULL	NULL	NULL	NULL	NULL	NULL	NULL	NULL
TRSEscan	1101	2	60.002	1	1596002869	7/23/2010	14:03:55	3	BlockProc	SessionList	2	2	3	1	-999999	328714	10	325692	1	4	45		1	2	1020	Both			NULL	NULL	NULL	NULL		NULL	NULL		344137	1	330760	0	345132	344142			0	347032	345142	InstrProc		BlockList	NULL	NULL	NULL	NULL	NULL	NULL	NULL	NULL	NULL
TRSEscan	1101	2	60.002	1	1596002869	7/23/2010	14:03:55	3	BlockProc	SessionList	2	2	3	2	NULL	NULL	NULL	NULL	2	4	46	Faces	NULL	NULL	NULL	Both	1	2390	0	350032	10	347742	0	NULL	NULL	face/m_073.bmp	NULL	NULL	NULL	NULL	NULL	NULL	Novel	FFSFFFSSFSSFSSSFSFFS	NULL	NULL	NULL	TrialProc	Relevant	BlockList	1	1	0	347632	10	347142	1	307	347449
TRSEscan	1101	2	60.002	1	1596002869	7/23/2010	14:03:55	3	BlockProc	SessionList	2	2	3	3	NULL	NULL	NULL	NULL	3	4	47	Faces	NULL	NULL	NULL	Both	1	4390	0	355032	10	350742	0	NULL	NULL	face/m_124.bmp	NULL	NULL	NULL	NULL	NULL	NULL	Novel	FFSFFFSSFSSFSSSFSFFS	NULL	NULL	NULL	TrialProc	Relevant	BlockList	1	1	0	350632	10	350142	1	499	350641
TRSEscan	1101	2	60.002	1	1596002869	7/23/2010	14:03:55	3	BlockProc	SessionList	2	2	3	4	NULL	NULL	NULL	NULL	4	4	48	Scenes	NULL	NULL	NULL	Both	1	6390	0	362032	10	355742	2	NULL	NULL	scene/s_122.bmp	NULL	NULL	NULL	NULL	NULL	NULL	Novel	FFSFFFSSFSSFSSSFSFFS	NULL	NULL	NULL	TrialProc	Relevant	BlockList	1	1	0	355632	10	355142	1	811	355953
TRSEscan	1101	2	60.002	1	1596002869	7/23/2010	14:03:55	3	BlockProc	SessionList	2	2	3	5	NULL	NULL	NULL	NULL	5	4	49	Faces	NULL	NULL	NULL	Both	2	4390	0	367031	10	362741	1	NULL	NULL	face/m_124.bmp	NULL	NULL	NULL	NULL	NULL	NULL	Repeat	FFSFFFSSFSSFSSSFSFFS	NULL	NULL	NULL	TrialProc	Relevant	BlockList	1	2	0	362631	9	362141	2	836	362977
TRSEscan	1101	2	60.002	1	1596002869	7/23/2010	14:03:55	3	BlockProc	SessionList	2	2	3	6	NULL	NULL	NULL	NULL	6	4	50	Faces	NULL	NULL	NULL	Both	2	2390	0	370031	10	367741	0	NULL	NULL	face/m_124.bmp	NULL	NULL	NULL	NULL	NULL	NULL	Repeat	FFSFFFSSFSSFSSSFSFFS	NULL	NULL	NULL	TrialProc	Relevant	BlockList	1	2	0	367631	10	367141	2	644	367785
TRSEscan	1101	2	60.002	1	1596002869	7/23/2010	14:03:55	3	BlockProc	SessionList	2	2	3	7	NULL	NULL	NULL	NULL	7	4	51	Faces	NULL	NULL	NULL	Both	1	6390	0	377031	10	370741	0	NULL	NULL	face/m_122.bmp	NULL	NULL	NULL	NULL	NULL	NULL	Novel	FFSFFFSSFSSFSSSFSFFS	NULL	NULL	NULL	TrialProc	Relevant	BlockList	1	1	0	370631	10	370141	1	603	370744
TRSEscan	1101	2	60.002	1	1596002869	7/23/2010	14:03:55	3	BlockProc	SessionList	2	2	3	8	NULL	NULL	NULL	NULL	8	4	52	Scenes	NULL	NULL	NULL	Both	1	2390	0	380031	10	377741	3	NULL	NULL	scene/s_361.bmp	NULL	NULL	NULL	NULL	NULL	NULL	Novel	FFSFFFSSFSSFSSSFSFFS	NULL	NULL	NULL	TrialProc	Relevant	BlockList	1	1	0	377631	10	377141	1	707	377848
TRSEscan	1101	2	60.002	1	1596002869	7/23/2010	14:03:55	3	BlockProc	SessionList	2	2	3	9	NULL	NULL	NULL	NULL	9	4	53	Scenes	NULL	NULL	NULL	Both	2	4390	0	385031	10	380741	0	NULL	NULL	scene/s_361.bmp	NULL	NULL	NULL	NULL	NULL	NULL	Repeat	FFSFFFSSFSSFSSSFSFFS	NULL	NULL	NULL	TrialProc	Relevant	BlockList	1	2	0	380631	10	380141	2	715	380856
TRSEscan	1101	2	60.002	1	1596002869	7/23/2010	14:03:55	3	BlockProc	SessionList	2	2	3	10	NULL	NULL	NULL	NULL	10	4	54	Faces	NULL	NULL	NULL	Both	2	2390	0	388031	10	385741	2	NULL	NULL	face/m_122.bmp	NULL	NULL	NULL	NULL	NULL	NULL	Repeat	FFSFFFSSFSSFSSSFSFFS	NULL	NULL	NULL	TrialProc	Relevant	BlockList	1	2	0	385631	10	385141	2	675	385816
TRSEscan	1101	2	60.002	1	1596002869	7/23/2010	14:03:55	3	BlockProc	SessionList	2	2	3	11	NULL	NULL	NULL	NULL	11	4	55	Scenes	NULL	NULL	NULL	Both	2	4390	0	393031	10	388741	1	NULL	NULL	scene/s_361.bmp	NULL	NULL	NULL	NULL	NULL	NULL	Repeat	FFSFFFSSFSSFSSSFSFFS	NULL	NULL	NULL	TrialProc	Relevant	BlockList	1	2	0	388631	10	388141	2	771	388912
TRSEscan	1101	2	60.002	1	1596002869	7/23/2010	14:03:55	3	BlockProc	SessionList	2	2	3	12	NULL	NULL	NULL	NULL	12	4	56	Scenes	NULL	NULL	NULL	Both	1	6390	0	400031	10	393741	0	NULL	NULL	scene/s_159.bmp	NULL	NULL	NULL	NULL	NULL	NULL	Novel	FFSFFFSSFSSFSSSFSFFS	NULL	NULL	NULL	TrialProc	Relevant	BlockList	1	1	0	393631	10	393141	1	675	393816
TRSEscan	1101	2	60.002	1	1596002869	7/23/2010	14:03:55	3	BlockProc	SessionList	2	2	3	13	NULL	NULL	NULL	NULL	13	4	57	Faces	NULL	NULL	NULL	Both	1	4390	0	405030	10	400740	2	NULL	NULL	face/m_029.bmp	NULL	NULL	NULL	NULL	NULL	NULL	Novel	FFSFFFSSFSSFSSSFSFFS	NULL	NULL	NULL	TrialProc	Relevant	BlockList	1	1	0	400630	9	400140	1	660	400800
TRSEscan	1101	2	60.002	1	1596002869	7/23/2010	14:03:55	3	BlockProc	SessionList	2	2	3	14	NULL	NULL	NULL	NULL	14	4	58	Scenes	NULL	NULL	NULL	Both	2	2390	0	408030	10	405740	1	NULL	NULL	scene/s_159.bmp	NULL	NULL	NULL	NULL	NULL	NULL	Repeat	FFSFFFSSFSSFSSSFSFFS	NULL	NULL	NULL	TrialProc	Relevant	BlockList	1	2	0	405630	10	405140	2	620	405760
TRSEscan	1101	2	60.002	1	1596002869	7/23/2010	14:03:55	3	BlockProc	SessionList	2	2	3	15	NULL	NULL	NULL	NULL	15	4	59	Scenes	NULL	NULL	NULL	Both	1	6390	0	415030	10	408740	0	NULL	NULL	scene/s_242.bmp	NULL	NULL	NULL	NULL	NULL	NULL	Novel	FFSFFFSSFSSFSSSFSFFS	NULL	NULL	NULL	TrialProc	Relevant	BlockList	1	1	0	408630	10	408140	1	620	408760
TRSEscan	1101	2	60.002	1	1596002869	7/23/2010	14:03:55	3	BlockProc	SessionList	2	2	3	16	NULL	NULL	NULL	NULL	16	4	60	Scenes	NULL	NULL	NULL	Both	1	4390	0	420030	10	415740	0	NULL	NULL	scene/s_432.bmp	NULL	NULL	NULL	NULL	NULL	NULL	Novel	FFSFFFSSFSSFSSSFSFFS	NULL	NULL	NULL	TrialProc	Relevant	BlockList	1	1	0	415630	10	415140	1	683	415823
TRSEscan	1101	2	60.002	1	1596002869	7/23/2010	14:03:55	3	BlockProc	SessionList	2	2	3	17	NULL	NULL	NULL	NULL	17	4	61	Faces	NULL	NULL	NULL	Both	1	6390	0	427030	10	420740	3	NULL	NULL	face/f_005.bmp	NULL	NULL	NULL	NULL	NULL	NULL	Novel	FFSFFFSSFSSFSSSFSFFS	NULL	NULL	NULL	TrialProc	Relevant	BlockList	1	1	0	420630	10	420140	1	643	420783
TRSEscan	1101	2	60.002	1	1596002869	7/23/2010	14:03:55	3	BlockProc	SessionList	2	2	3	18	NULL	NULL	NULL	NULL	18	4	62	Scenes	NULL	NULL	NULL	Both	2	2390	0	430030	10	427740	1	NULL	NULL	scene/s_432.bmp	NULL	NULL	NULL	NULL	NULL	NULL	Repeat	FFSFFFSSFSSFSSSFSFFS	NULL	NULL	NULL	TrialProc	Relevant	BlockList	1	2	0	427630	10	427140	2	563	427703
TRSEscan	1101	2	60.002	1	1596002869	7/23/2010	14:03:55	3	BlockProc	SessionList	2	2	3	19	NULL	NULL	NULL	NULL	19	4	63	Faces	NULL	NULL	NULL	Both	2	2390	0	433030	10	430740	1	NULL	NULL	face/f_005.bmp	NULL	NULL	NULL	NULL	NULL	NULL	Repeat	FFSFFFSSFSSFSSSFSFFS	NULL	NULL	NULL	TrialProc	Relevant	BlockList	1	2	0	430630	10	430140	2	587	430727
TRSEscan	1101	2	60.002	1	1596002869	7/23/2010	14:03:55	3	BlockProc	SessionList	2	2	3	20	NULL	NULL	NULL	NULL	20	4	64	Faces	NULL	NULL	NULL	Both	1	6390	0	440030	10	433740	0	NULL	NULL	face/m_085.bmp	NULL	NULL	NULL	NULL	NULL	NULL	Novel	FFSFFFSSFSSFSSSFSFFS	NULL	NULL	NULL	TrialProc	Relevant	BlockList	1	1	0	433630	10	433140	1	667	433807
TRSEscan	1101	2	60.002	1	1596002869	7/23/2010	14:03:55	3	BlockProc	SessionList	2	2	3	21	NULL	NULL	NULL	NULL	21	4	65	Scenes	NULL	NULL	NULL	Both	1	4390	0	445029	10	440739	2	NULL	NULL	scene/s_400.bmp	NULL	NULL	NULL	NULL	NULL	NULL	Novel	FFSFFFSSFSSFSSSFSFFS	NULL	NULL	NULL	TrialProc	Relevant	BlockList	1	1	0	440629	9	440139	1	700	440839
TRSEscan	1101	2	60.002	1	1596002869	7/23/2010	14:03:55	3	BlockProc	SessionList	2	2	3	22	NULL	NULL	NULL	NULL	22	4	66		NULL	NULL	NULL	Both			NULL	NULL	NULL	NULL		460029	458139		NULL	NULL	NULL	NULL	NULL	NULL			NULL	NULL	NULL	FeedbackProc		BlockList	NULL	NULL	NULL	NULL	NULL	NULL	NULL	NULL	NULL
TRSEscan	1101	2	60.002	1	1596002869	7/23/2010	14:03:55	4	BlockProc	SessionList	2	2	4	1	-999999	462806	10	460139	1	5	67		1	2	928	Faces			NULL	NULL	NULL	NULL		NULL	NULL		478246	1	464757	0	479245	478255			0	481145	479255	InstrProc		BlockList	NULL	NULL	NULL	NULL	NULL	NULL	NULL	NULL	NULL
TRSEscan	1101	2	60.002	1	1596002869	7/23/2010	14:03:55	4	BlockProc	SessionList	2	2	4	2	NULL	NULL	NULL	NULL	2	5	68	Faces	NULL	NULL	NULL	Faces	1	2390	0	484145	10	481855	0	NULL	NULL	face/f_123.bmp	NULL	NULL	NULL	NULL	NULL	NULL	Novel	FFSFFFSSFSSFSSSFSFFS	NULL	NULL	NULL	TrialProc	Relevant	BlockList	1	1	0	481745	10	481255	1	711	481966
TRSEscan	1101	2	60.002	1	1596002869	7/23/2010	14:03:55	4	BlockProc	SessionList	2	2	4	3	NULL	NULL	NULL	NULL	3	5	69	Faces	NULL	NULL	NULL	Faces	1	4390	0	489145	10	484855	0	NULL	NULL	face/m_027.bmp	NULL	NULL	NULL	NULL	NULL	NULL	Novel	FFSFFFSSFSSFSSSFSFFS	NULL	NULL	NULL	TrialProc	Relevant	BlockList	1	1	0	484745	10	484255	1	543	484798
TRSEscan	1101	2	60.002	1	1596002869	7/23/2010	14:03:55	4	BlockProc	SessionList	2	2	4	4	NULL	NULL	NULL	NULL	4	5	70	Scenes	NULL	NULL	NULL	Faces	1	6390	0	496145	10	489855	2	NULL	NULL	scene/s_425.bmp	NULL	NULL	NULL	NULL	NULL	NULL	Novel	FFSFFFSSFSSFSSSFSFFS	NULL	NULL	NULL	TrialProc	Irrelevant	BlockList	1	1	0	489745	10	489255	1	415	489670
TRSEscan	1101	2	60.002	1	1596002869	7/23/2010	14:03:55	4	BlockProc	SessionList	2	2	4	5	NULL	NULL	NULL	NULL	5	5	71	Faces	NULL	NULL	NULL	Faces	2	4390	0	501145	10	496855	1	NULL	NULL	face/m_027.bmp	NULL	NULL	NULL	NULL	NULL	NULL	Repeat	FFSFFFSSFSSFSSSFSFFS	NULL	NULL	NULL	TrialProc	Relevant	BlockList	1	2	0	496745	10	496255	2	646	496901
TRSEscan	1101	2	60.002	1	1596002869	7/23/2010	14:03:55	4	BlockProc	SessionList	2	2	4	6	NULL	NULL	NULL	NULL	6	5	72	Faces	NULL	NULL	NULL	Faces	2	2390	0	504145	10	501855	0	NULL	NULL	face/m_027.bmp	NULL	NULL	NULL	NULL	NULL	NULL	Repeat	FFSFFFSSFSSFSSSFSFFS	NULL	NULL	NULL	TrialProc	Relevant	BlockList	1	2	0	501745	10	501255	2	614	501869
TRSEscan	1101	2	60.002	1	1596002869	7/23/2010	14:03:55	4	BlockProc	SessionList	2	2	4	7	NULL	NULL	NULL	NULL	7	5	73	Faces	NULL	NULL	NULL	Faces	1	6390	0	511145	10	504855	0	NULL	NULL	face/f_115.bmp	NULL	NULL	NULL	NULL	NULL	NULL	Novel	FFSFFFSSFSSFSSSFSFFS	NULL	NULL	NULL	TrialProc	Relevant	BlockList	1	1	0	504745	10	504255	1	566	504821
TRSEscan	1101	2	60.002	1	1596002869	7/23/2010	14:03:55	4	BlockProc	SessionList	2	2	4	8	NULL	NULL	NULL	NULL	8	5	74	Scenes	NULL	NULL	NULL	Faces	1	2390	0	514144	10	511854	3	NULL	NULL	scene/s_272.bmp	NULL	NULL	NULL	NULL	NULL	NULL	Novel	FFSFFFSSFSSFSSSFSFFS	NULL	NULL	NULL	TrialProc	Irrelevant	BlockList	1	1	0	511744	9	511254	1	631	511885
TRSEscan	1101	2	60.002	1	1596002869	7/23/2010	14:03:55	4	BlockProc	SessionList	2	2	4	9	NULL	NULL	NULL	NULL	9	5	75	Scenes	NULL	NULL	NULL	Faces	1	4390	0	519144	10	514854	0	NULL	NULL	scene/s_272.bmp	NULL	NULL	NULL	NULL	NULL	NULL	Repeat	FFSFFFSSFSSFSSSFSFFS	NULL	NULL	NULL	TrialProc	Irrelevant	BlockList	1	1	0	514744	10	514254	1	487	514741
TRSEscan	1101	2	60.002	1	1596002869	7/23/2010	14:03:55	4	BlockProc	SessionList	2	2	4	10	NULL	NULL	NULL	NULL	10	5	76	Faces	NULL	NULL	NULL	Faces	2	2390	0	522144	10	519854	2	NULL	NULL	face/f_115.bmp	NULL	NULL	NULL	NULL	NULL	NULL	Repeat	FFSFFFSSFSSFSSSFSFFS	NULL	NULL	NULL	TrialProc	Relevant	BlockList	1	2	0	519744	10	519254	2	607	519861
TRSEscan	1101	2	60.002	1	1596002869	7/23/2010	14:03:55	4	BlockProc	SessionList	2	2	4	11	NULL	NULL	NULL	NULL	11	5	77	Scenes	NULL	NULL	NULL	Faces	1	4390	0	527144	10	522854	1	NULL	NULL	scene/s_272.bmp	NULL	NULL	NULL	NULL	NULL	NULL	Repeat	FFSFFFSSFSSFSSSFSFFS	NULL	NULL	NULL	TrialProc	Irrelevant	BlockList	1	1	0	522744	10	522254	1	567	522821
TRSEscan	1101	2	60.002	1	1596002869	7/23/2010	14:03:55	4	BlockProc	SessionList	2	2	4	12	NULL	NULL	NULL	NULL	12	5	78	Scenes	NULL	NULL	NULL	Faces	1	6390	0	534144	10	527854	0	NULL	NULL	scene/s_304.bmp	NULL	NULL	NULL	NULL	NULL	NULL	Novel	FFSFFFSSFSSFSSSFSFFS	NULL	NULL	NULL	TrialProc	Irrelevant	BlockList	1	1	0	527744	10	527254	1	567	527821
TRSEscan	1101	2	60.002	1	1596002869	7/23/2010	14:03:55	4	BlockProc	SessionList	2	2	4	13	NULL	NULL	NULL	NULL	13	5	79	Faces	NULL	NULL	NULL	Faces	1	4390	0	539144	10	534854	2	NULL	NULL	face/m_089.bmp	NULL	NULL	NULL	NULL	NULL	NULL	Novel	FFSFFFSSFSSFSSSFSFFS	NULL	NULL	NULL	TrialProc	Relevant	BlockList	1	1	0	534744	10	534254	1	630	534884
TRSEscan	1101	2	60.002	1	1596002869	7/23/2010	14:03:55	4	BlockProc	SessionList	2	2	4	14	NULL	NULL	NULL	NULL	14	5	80	Scenes	NULL	NULL	NULL	Faces	1	2390	0	542144	10	539854	1	NULL	NULL	scene/s_304.bmp	NULL	NULL	NULL	NULL	NULL	NULL	Repeat	FFSFFFSSFSSFSSSFSFFS	NULL	NULL	NULL	TrialProc	Irrelevant	BlockList	1	1	0	539744	10	539254	1	478	539732
TRSEscan	1101	2	60.002	1	1596002869	7/23/2010	14:03:55	4	BlockProc	SessionList	2	2	4	15	NULL	NULL	NULL	NULL	15	5	81	Scenes	NULL	NULL	NULL	Faces	1	6390	0	549144	10	542854	0	NULL	NULL	scene/s_170.bmp	NULL	NULL	NULL	NULL	NULL	NULL	Novel	FFSFFFSSFSSFSSSFSFFS	NULL	NULL	NULL	TrialProc	Irrelevant	BlockList	1	1	0	542744	10	542254	1	438	542692
TRSEscan	1101	2	60.002	1	1596002869	7/23/2010	14:03:55	4	BlockProc	SessionList	2	2	4	16	NULL	NULL	NULL	NULL	16	5	82	Scenes	NULL	NULL	NULL	Faces	1	4390	0	554143	10	549853	0	NULL	NULL	scene/s_192.bmp	NULL	NULL	NULL	NULL	NULL	NULL	Novel	FFSFFFSSFSSFSSSFSFFS	NULL	NULL	NULL	TrialProc	Irrelevant	BlockList	1	1	0	549743	9	549253	1	511	549764
TRSEscan	1101	2	60.002	1	1596002869	7/23/2010	14:03:55	4	BlockProc	SessionList	2	2	4	17	NULL	NULL	NULL	NULL	17	5	83	Faces	NULL	NULL	NULL	Faces	1	6390	0	561143	10	554853	3	NULL	NULL	face/f_045.bmp	NULL	NULL	NULL	NULL	NULL	NULL	Novel	FFSFFFSSFSSFSSSFSFFS	NULL	NULL	NULL	TrialProc	Relevant	BlockList	1	1	0	554743	10	554253	1	546	554799
TRSEscan	1101	2	60.002	1	1596002869	7/23/2010	14:03:55	4	BlockProc	SessionList	2	2	4	18	NULL	NULL	NULL	NULL	18	5	84	Scenes	NULL	NULL	NULL	Faces	1	2390	0	564143	10	561853	1	NULL	NULL	scene/s_192.bmp	NULL	NULL	NULL	NULL	NULL	NULL	Repeat	FFSFFFSSFSSFSSSFSFFS	NULL	NULL	NULL	TrialProc	Irrelevant	BlockList	1	1	0	561743	10	561253	1	463	561716
TRSEscan	1101	2	60.002	1	1596002869	7/23/2010	14:03:55	4	BlockProc	SessionList	2	2	4	19	NULL	NULL	NULL	NULL	19	5	85	Faces	NULL	NULL	NULL	Faces	2	2390	0	567143	10	564853	1	NULL	NULL	face/f_045.bmp	NULL	NULL	NULL	NULL	NULL	NULL	Repeat	FFSFFFSSFSSFSSSFSFFS	NULL	NULL	NULL	TrialProc	Relevant	BlockList	1	2	0	564743	10	564253	2	615	564868
TRSEscan	1101	2	60.002	1	1596002869	7/23/2010	14:03:55	4	BlockProc	SessionList	2	2	4	20	NULL	NULL	NULL	NULL	20	5	86	Faces	NULL	NULL	NULL	Faces	1	6390	0	574143	10	567853	0	NULL	NULL	face/f_146.bmp	NULL	NULL	NULL	NULL	NULL	NULL	Novel	FFSFFFSSFSSFSSSFSFFS	NULL	NULL	NULL	TrialProc	Relevant	BlockList	1	1	0	567743	10	567253	1	679	567932
TRSEscan	1101	2	60.002	1	1596002869	7/23/2010	14:03:55	4	BlockProc	SessionList	2	2	4	21	NULL	NULL	NULL	NULL	21	5	87	Scenes	NULL	NULL	NULL	Faces	1	4390	0	579143	10	574853	2	NULL	NULL	scene/s_352.bmp	NULL	NULL	NULL	NULL	NULL	NULL	Novel	FFSFFFSSFSSFSSSFSFFS	NULL	NULL	NULL	TrialProc	Irrelevant	BlockList	1	1	0	574743	10	574253	1	495	574748
TRSEscan	1101	2	60.002	1	1596002869	7/23/2010	14:03:55	4	BlockProc	SessionList	2	2	4	22	NULL	NULL	NULL	NULL	22	5	88		NULL	NULL	NULL	Faces			NULL	NULL	NULL	NULL		594142	592252		NULL	NULL	NULL	NULL	NULL	NULL			NULL	NULL	NULL	FeedbackProc		BlockList	NULL	NULL	NULL	NULL	NULL	NULL	NULL	NULL	NULL
TRSEscan	1101	3	60.002	1	-524578563	7/23/2010	14:14:30	1	BlockProc	SessionList	2	2	1	1	-999999	52156	2	47753	1	2	1		1	2	1100	Categorize			NULL	NULL	NULL	NULL		NULL	NULL		68235	1	54269	0	69241	68251			0	71141	69251	InstrProc		BlockList	NULL	NULL	NULL	NULL	NULL	NULL	NULL	NULL	NULL
TRSEscan	1101	3	60.002	1	-524578563	7/23/2010	14:14:30	1	BlockProc	SessionList	2	2	1	2	NULL	NULL	NULL	NULL	2	2	2	Faces	NULL	NULL	NULL	Categorize	1	4390	0	76141	10	71851	0	NULL	NULL	face/f_066.bmp	NULL	NULL	NULL	NULL	NULL	NULL	Novel	FFSFFFSFFSSFSFSSSFSS	NULL	NULL	NULL	TrialProc	Irrelevant	BlockList	1	1	0	71741	10	71251	1	536	71787
TRSEscan	1101	3	60.002	1	-524578563	7/23/2010	14:14:30	1	BlockProc	SessionList	2	2	1	3	NULL	NULL	NULL	NULL	3	2	3	Faces	NULL	NULL	NULL	Categorize	1	2390	0	79141	10	76851	0	NULL	NULL	face/f_099.bmp	NULL	NULL	NULL	NULL	NULL	NULL	Novel	FFSFFFSFFSSFSFSSSFSS	NULL	NULL	NULL	TrialProc	Irrelevant	BlockList	1	1	0	76741	10	76251	1	624	76875
TRSEscan	1101	3	60.002	1	-524578563	7/23/2010	14:14:30	1	BlockProc	SessionList	2	2	1	4	NULL	NULL	NULL	NULL	4	2	4	Scenes	NULL	NULL	NULL	Categorize	2	2390	0	82141	10	79851	2	NULL	NULL	scene/s_315.bmp	NULL	NULL	NULL	NULL	NULL	NULL	Novel	FFSFFFSFFSSFSFSSSFSS	NULL	NULL	NULL	TrialProc	Irrelevant	BlockList	1	2	0	79741	10	79251	2	488	79739
TRSEscan	1101	3	60.002	1	-524578563	7/23/2010	14:14:30	1	BlockProc	SessionList	2	2	1	5	NULL	NULL	NULL	NULL	5	2	5	Faces	NULL	NULL	NULL	Categorize	1	6390	0	89141	10	82851	1	NULL	NULL	face/f_147.bmp	NULL	NULL	NULL	NULL	NULL	NULL	Novel	FFSFFFSFFSSFSFSSSFSS	NULL	NULL	NULL	TrialProc	Irrelevant	BlockList	1	1	0	82741	10	82251	1	440	82691
TRSEscan	1101	3	60.002	1	-524578563	7/23/2010	14:14:30	1	BlockProc	SessionList	2	2	1	6	NULL	NULL	NULL	NULL	6	2	6	Faces	NULL	NULL	NULL	Categorize	1	4390	0	94140	10	89850	0	NULL	NULL	face/f_147.bmp	NULL	NULL	NULL	NULL	NULL	NULL	Repeat	FFSFFFSFFSSFSFSSSFSS	NULL	NULL	NULL	TrialProc	Irrelevant	BlockList	1	1	0	89740	9	89250	1	401	89651
TRSEscan	1101	3	60.002	1	-524578563	7/23/2010	14:14:30	1	BlockProc	SessionList	2	2	1	7	NULL	NULL	NULL	NULL	7	2	7	Faces	NULL	NULL	NULL	Categorize	1	6390	0	101140	10	94850	0	NULL	NULL	face/m_071.bmp	NULL	NULL	NULL	NULL	NULL	NULL	Novel	FFSFFFSFFSSFSFSSSFSS	NULL	NULL	NULL	TrialProc	Irrelevant	BlockList	1	1	0	94740	10	94250	1	489	94739
TRSEscan	1101	3	60.002	1	-524578563	7/23/2010	14:14:30	1	BlockProc	SessionList	2	2	1	8	NULL	NULL	NULL	NULL	8	2	8	Scenes	NULL	NULL	NULL	Categorize	2	2390	0	104140	10	101850	3	NULL	NULL	scene/s_434.bmp	NULL	NULL	NULL	NULL	NULL	NULL	Novel	FFSFFFSFFSSFSFSSSFSS	NULL	NULL	NULL	TrialProc	Irrelevant	BlockList	1	2	0	101740	10	101250	2	545	101795
TRSEscan	1101	3	60.002	1	-524578563	7/23/2010	14:14:30	1	BlockProc	SessionList	2	2	1	9	NULL	NULL	NULL	NULL	9	2	9	Faces	NULL	NULL	NULL	Categorize	1	4390	0	109140	10	104850	1	NULL	NULL	face/f_006.bmp	NULL	NULL	NULL	NULL	NULL	NULL	Novel	FFSFFFSFFSSFSFSSSFSS	NULL	NULL	NULL	TrialProc	Irrelevant	BlockList	1	1	0	104740	10	104250	1	577	104827
TRSEscan	1101	3	60.002	1	-524578563	7/23/2010	14:14:30	1	BlockProc	SessionList	2	2	1	10	NULL	NULL	NULL	NULL	10	2	10	Faces	NULL	NULL	NULL	Categorize	1	6390	0	116140	10	109850	0	NULL	NULL	face/f_006.bmp	NULL	NULL	NULL	NULL	NULL	NULL	Repeat	FFSFFFSFFSSFSFSSSFSS	NULL	NULL	NULL	TrialProc	Irrelevant	BlockList	1	1	0	109740	10	109250	1	424	109674
TRSEscan	1101	3	60.002	1	-524578563	7/23/2010	14:14:30	1	BlockProc	SessionList	2	2	1	11	NULL	NULL	NULL	NULL	11	2	11	Scenes	NULL	NULL	NULL	Categorize	2	4390	0	121140	10	116850	2	NULL	NULL	scene/s_025.bmp	NULL	NULL	NULL	NULL	NULL	NULL	Novel	FFSFFFSFFSSFSFSSSFSS	NULL	NULL	NULL	TrialProc	Irrelevant	BlockList	1	2	0	116740	10	116250	2	584	116834
TRSEscan	1101	3	60.002	1	-524578563	7/23/2010	14:14:30	1	BlockProc	SessionList	2	2	1	12	NULL	NULL	NULL	NULL	12	2	12	Scenes	NULL	NULL	NULL	Categorize	2	2390	0	124140	10	121850	0	NULL	NULL	scene/s_025.bmp	NULL	NULL	NULL	NULL	NULL	NULL	Repeat	FFSFFFSFFSSFSFSSSFSS	NULL	NULL	NULL	TrialProc	Irrelevant	BlockList	1	2	0	121740	10	121250	2	488	121738
TRSEscan	1101	3	60.002	1	-524578563	7/23/2010	14:14:30	1	BlockProc	SessionList	2	2	1	13	NULL	NULL	NULL	NULL	13	2	13	Faces	NULL	NULL	NULL	Categorize	1	4390	0	129140	10	124850	2	NULL	NULL	face/f_006.bmp	NULL	NULL	NULL	NULL	NULL	NULL	Repeat	FFSFFFSFFSSFSFSSSFSS	NULL	NULL	NULL	TrialProc	Irrelevant	BlockList	1	1	0	124740	10	124250	1	496	124746
TRSEscan	1101	3	60.002	1	-524578563	7/23/2010	14:14:30	1	BlockProc	SessionList	2	2	1	14	NULL	NULL	NULL	NULL	14	2	14	Scenes	NULL	NULL	NULL	Categorize	2	2390	0	132139	10	129849	1	NULL	NULL	scene/s_317.bmp	NULL	NULL	NULL	NULL	NULL	NULL	Novel	FFSFFFSFFSSFSFSSSFSS	NULL	NULL	NULL	TrialProc	Irrelevant	BlockList	1	2	0	129739	9	129249	2	521	129770
TRSEscan	1101	3	60.002	1	-524578563	7/23/2010	14:14:30	1	BlockProc	SessionList	2	2	1	15	NULL	NULL	NULL	NULL	15	2	15	Faces	NULL	NULL	NULL	Categorize	1	6390	0	139139	10	132849	1	NULL	NULL	face/m_069.bmp	NULL	NULL	NULL	NULL	NULL	NULL	Novel	FFSFFFSFFSSFSFSSSFSS	NULL	NULL	NULL	TrialProc	Irrelevant	BlockList	1	1	0	132739	10	132249	1	505	132754
TRSEscan	1101	3	60.002	1	-524578563	7/23/2010	14:14:30	1	BlockProc	SessionList	2	2	1	16	NULL	NULL	NULL	NULL	16	2	16	Scenes	NULL	NULL	NULL	Categorize	2	4390	0	144139	10	139849	1	NULL	NULL	scene/s_306.bmp	NULL	NULL	NULL	NULL	NULL	NULL	Novel	FFSFFFSFFSSFSFSSSFSS	NULL	NULL	NULL	TrialProc	Irrelevant	BlockList	1	2	0	139739	10	139249	2	449	139698
TRSEscan	1101	3	60.002	1	-524578563	7/23/2010	14:14:30	1	BlockProc	SessionList	2	2	1	17	NULL	NULL	NULL	NULL	17	2	17	Scenes	NULL	NULL	NULL	Categorize	2	6390	0	151139	10	144849	0	NULL	NULL	scene/s_306.bmp	NULL	NULL	NULL	NULL	NULL	NULL	Repeat	FFSFFFSFFSSFSFSSSFSS	NULL	NULL	NULL	TrialProc	Irrelevant	BlockList	1	2	0	144739	10	144249	2	472	144721
TRSEscan	1101	3	60.002	1	-524578563	7/23/2010	14:14:30	1	BlockProc	SessionList	2	2	1	18	NULL	NULL	NULL	NULL	18	2	18	Scenes	NULL	NULL	NULL	Categorize	2	2390	0	154139	10	151849	0	NULL	NULL	scene/s_306.bmp	NULL	NULL	NULL	NULL	NULL	NULL	Repeat	FFSFFFSFFSSFSFSSSFSS	NULL	NULL	NULL	TrialProc	Irrelevant	BlockList	1	2	0	151739	10	151249	2	536	151785
TRSEscan	1101	3	60.002	1	-524578563	7/23/2010	14:14:30	1	BlockProc	SessionList	2	2	1	19	NULL	NULL	NULL	NULL	19	2	19	Faces	NULL	NULL	NULL	Categorize	1	2390	0	157139	10	154849	3	NULL	NULL	face/m_069.bmp	NULL	NULL	NULL	NULL	NULL	NULL	Repeat	FFSFFFSFFSSFSFSSSFSS	NULL	NULL	NULL	TrialProc	Irrelevant	BlockList	1	1	0	154739	10	154249	1	560	154809
TRSEscan	1101	3	60.002	1	-524578563	7/23/2010	14:14:30	1	BlockProc	SessionList	2	2	1	20	NULL	NULL	NULL	NULL	20	2	20	Scenes	NULL	NULL	NULL	Categorize	2	4390	0	162139	10	157849	1	NULL	NULL	scene/s_351.bmp	NULL	NULL	NULL	NULL	NULL	NULL	Novel	FFSFFFSFFSSFSFSSSFSS	NULL	NULL	NULL	TrialProc	Irrelevant	BlockList	1	2	0	157739	10	157249	2	536	157785
TRSEscan	1101	3	60.002	1	-524578563	7/23/2010	14:14:30	1	BlockProc	SessionList	2	2	1	21	NULL	NULL	NULL	NULL	21	2	21	Scenes	NULL	NULL	NULL	Categorize	2	6390	0	169139	10	162849	0	NULL	NULL	scene/s_351.bmp	NULL	NULL	NULL	NULL	NULL	NULL	Repeat	FFSFFFSFFSSFSFSSSFSS	NULL	NULL	NULL	TrialProc	Irrelevant	BlockList	1	2	0	162739	10	162249	2	488	162737
TRSEscan	1101	3	60.002	1	-524578563	7/23/2010	14:14:30	1	BlockProc	SessionList	2	2	1	22	NULL	NULL	NULL	NULL	22	2	22		NULL	NULL	NULL	Categorize			NULL	NULL	NULL	NULL		184138	182248		NULL	NULL	NULL	NULL	NULL	NULL			NULL	NULL	NULL	FeedbackProc		BlockList	NULL	NULL	NULL	NULL	NULL	NULL	NULL	NULL	NULL
TRSEscan	1101	3	60.002	1	-524578563	7/23/2010	14:14:30	2	BlockProc	SessionList	2	2	2	1	-999999	186513	10	184248	1	3	23		1	2	877	Both			NULL	NULL	NULL	NULL		NULL	NULL		202792	1	188399	0	203788	202798			0	205688	203798	InstrProc		BlockList	NULL	NULL	NULL	NULL	NULL	NULL	NULL	NULL	NULL
TRSEscan	1101	3	60.002	1	-524578563	7/23/2010	14:14:30	2	BlockProc	SessionList	2	2	2	2	NULL	NULL	NULL	NULL	2	3	24	Faces	NULL	NULL	NULL	Both	1	4390	0	210688	10	206398	0	NULL	NULL	face/m_068.bmp	NULL	NULL	NULL	NULL	NULL	NULL	Novel	FFSFFFSFFSSFSFSSSFSS	NULL	NULL	NULL	TrialProc	Relevant	BlockList	1	1	0	206288	10	205798	1	346	206144
TRSEscan	1101	3	60.002	1	-524578563	7/23/2010	14:14:30	2	BlockProc	SessionList	2	2	2	3	NULL	NULL	NULL	NULL	3	3	25	Faces	NULL	NULL	NULL	Both	1	2390	0	213687	10	211397	0	NULL	NULL	face/m_070.bmp	NULL	NULL	NULL	NULL	NULL	NULL	Novel	FFSFFFSFFSSFSFSSSFSS	NULL	NULL	NULL	TrialProc	Relevant	BlockList	1	1	0	211287	9	210797	1	547	211344
TRSEscan	1101	3	60.002	1	-524578563	7/23/2010	14:14:30	2	BlockProc	SessionList	2	2	2	4	NULL	NULL	NULL	NULL	4	3	26	Scenes	NULL	NULL	NULL	Both	1	2390	0	216687	10	214397	2	NULL	NULL	scene/s_342.bmp	NULL	NULL	NULL	NULL	NULL	NULL	Novel	FFSFFFSFFSSFSFSSSFSS	NULL	NULL	NULL	TrialProc	Relevant	BlockList	1	1	0	214287	10	213797	1	699	214496
TRSEscan	1101	3	60.002	1	-524578563	7/23/2010	14:14:30	2	BlockProc	SessionList	2	2	2	5	NULL	NULL	NULL	NULL	5	3	27	Faces	NULL	NULL	NULL	Both	1	6390	0	223687	10	217397	1	NULL	NULL	face/m_076.bmp	NULL	NULL	NULL	NULL	NULL	NULL	Novel	FFSFFFSFFSSFSFSSSFSS	NULL	NULL	NULL	TrialProc	Relevant	BlockList	1	1	0	217287	10	216797	1	555	217352
TRSEscan	1101	3	60.002	1	-524578563	7/23/2010	14:14:30	2	BlockProc	SessionList	2	2	2	6	NULL	NULL	NULL	NULL	6	3	28	Faces	NULL	NULL	NULL	Both	2	4390	0	228687	10	224397	0	NULL	NULL	face/m_076.bmp	NULL	NULL	NULL	NULL	NULL	NULL	Repeat	FFSFFFSFFSSFSFSSSFSS	NULL	NULL	NULL	TrialProc	Relevant	BlockList	1	2	0	224287	10	223797	2	643	224440
TRSEscan	1101	3	60.002	1	-524578563	7/23/2010	14:14:30	2	BlockProc	SessionList	2	2	2	7	NULL	NULL	NULL	NULL	7	3	29	Faces	NULL	NULL	NULL	Both	1	6390	0	235687	10	229397	0	NULL	NULL	face/f_126.bmp	NULL	NULL	NULL	NULL	NULL	NULL	Novel	FFSFFFSFFSSFSFSSSFSS	NULL	NULL	NULL	TrialProc	Relevant	BlockList	1	1	0	229287	10	228797	1	618	229415
TRSEscan	1101	3	60.002	1	-524578563	7/23/2010	14:14:30	2	BlockProc	SessionList	2	2	2	8	NULL	NULL	NULL	NULL	8	3	30	Scenes	NULL	NULL	NULL	Both	1	2390	0	238687	10	236397	3	NULL	NULL	scene/s_171.bmp	NULL	NULL	NULL	NULL	NULL	NULL	Novel	FFSFFFSFFSSFSFSSSFSS	NULL	NULL	NULL	TrialProc	Relevant	BlockList	1	1	0	236287	10	235797	1	698	236495
TRSEscan	1101	3	60.002	1	-524578563	7/23/2010	14:14:30	2	BlockProc	SessionList	2	2	2	9	NULL	NULL	NULL	NULL	9	3	31	Faces	NULL	NULL	NULL	Both	1	4390	0	243687	10	239397	1	NULL	NULL	face/m_056.bmp	NULL	NULL	NULL	NULL	NULL	NULL	Novel	FFSFFFSFFSSFSFSSSFSS	NULL	NULL	NULL	TrialProc	Relevant	BlockList	1	1	0	239287	10	238797	1	602	239399
TRSEscan	1101	3	60.002	1	-524578563	7/23/2010	14:14:30	2	BlockProc	SessionList	2	2	2	10	NULL	NULL	NULL	NULL	10	3	32	Faces	NULL	NULL	NULL	Both	2	6390	0	250687	10	244397	0	NULL	NULL	face/m_056.bmp	NULL	NULL	NULL	NULL	NULL	NULL	Repeat	FFSFFFSFFSSFSFSSSFSS	NULL	NULL	NULL	TrialProc	Relevant	BlockList	1	2	0	244287	10	243797	2	570	244367
TRSEscan	1101	3	60.002	1	-524578563	7/23/2010	14:14:30	2	BlockProc	SessionList	2	2	2	11	NULL	NULL	NULL	NULL	11	3	33	Scenes	NULL	NULL	NULL	Both	1	4390	0	255686	10	251396	2	NULL	NULL	scene/s_395.bmp	NULL	NULL	NULL	NULL	NULL	NULL	Novel	FFSFFFSFFSSFSFSSSFSS	NULL	NULL	NULL	TrialProc	Relevant	BlockList	1	1	0	251286	9	250796	1	643	251439
TRSEscan	1101	3	60.002	1	-524578563	7/23/2010	14:14:30	2	BlockProc	SessionList	2	2	2	12	NULL	NULL	NULL	NULL	12	3	34	Scenes	NULL	NULL	NULL	Both	2	2390	0	258686	10	256396	0	NULL	NULL	scene/s_395.bmp	NULL	NULL	NULL	NULL	NULL	NULL	Repeat	FFSFFFSFFSSFSFSSSFSS	NULL	NULL	NULL	TrialProc	Relevant	BlockList	1	2	0	256286	10	255796	2	659	256455
TRSEscan	1101	3	60.002	1	-524578563	7/23/2010	14:14:30	2	BlockProc	SessionList	2	2	2	13	NULL	NULL	NULL	NULL	13	3	35	Faces	NULL	NULL	NULL	Both	2	4390	0	263686	10	259396	2	NULL	NULL	face/m_056.bmp	NULL	NULL	NULL	NULL	NULL	NULL	Repeat	FFSFFFSFFSSFSFSSSFSS	NULL	NULL	NULL	TrialProc	Relevant	BlockList	1	2	0	259286	10	258796	2	739	259535
TRSEscan	1101	3	60.002	1	-524578563	7/23/2010	14:14:30	2	BlockProc	SessionList	2	2	2	14	NULL	NULL	NULL	NULL	14	3	36	Scenes	NULL	NULL	NULL	Both	1	2390	0	266686	10	264396	1	NULL	NULL	scene/s_391.bmp	NULL	NULL	NULL	NULL	NULL	NULL	Novel	FFSFFFSFFSSFSFSSSFSS	NULL	NULL	NULL	TrialProc	Relevant	BlockList	1	1	0	264286	10	263796	1	683	264479
TRSEscan	1101	3	60.002	1	-524578563	7/23/2010	14:14:30	2	BlockProc	SessionList	2	2	2	15	NULL	NULL	NULL	NULL	15	3	37	Faces	NULL	NULL	NULL	Both	1	6390	0	273686	10	267396	1	NULL	NULL	face/m_075.bmp	NULL	NULL	NULL	NULL	NULL	NULL	Novel	FFSFFFSFFSSFSFSSSFSS	NULL	NULL	NULL	TrialProc	Relevant	BlockList	1	1	0	267286	10	266796	1	666	267462
TRSEscan	1101	3	60.002	1	-524578563	7/23/2010	14:14:30	2	BlockProc	SessionList	2	2	2	16	NULL	NULL	NULL	NULL	16	3	38	Scenes	NULL	NULL	NULL	Both	1	4390	0	278686	10	274396	1	NULL	NULL	scene/s_251.bmp	NULL	NULL	NULL	NULL	NULL	NULL	Novel	FFSFFFSFFSSFSFSSSFSS	NULL	NULL	NULL	TrialProc	Relevant	BlockList	1	1	0	274286	10	273796	1	634	274430
TRSEscan	1101	3	60.002	1	-524578563	7/23/2010	14:14:30	2	BlockProc	SessionList	2	2	2	17	NULL	NULL	NULL	NULL	17	3	39	Scenes	NULL	NULL	NULL	Both	2	6390	0	285686	10	279396	0	NULL	NULL	scene/s_251.bmp	NULL	NULL	NULL	NULL	NULL	NULL	Repeat	FFSFFFSFFSSFSFSSSFSS	NULL	NULL	NULL	TrialProc	Relevant	BlockList	1	2	0	279286	10	278796	2	706	279502
TRSEscan	1101	3	60.002	1	-524578563	7/23/2010	14:14:30	2	BlockProc	SessionList	2	2	2	18	NULL	NULL	NULL	NULL	18	3	40	Scenes	NULL	NULL	NULL	Both	2	2390	0	288686	10	286396	0	NULL	NULL	scene/s_251.bmp	NULL	NULL	NULL	NULL	NULL	NULL	Repeat	FFSFFFSFFSSFSFSSSFSS	NULL	NULL	NULL	TrialProc	Relevant	BlockList	1	2	0	286286	10	285796	2	682	286478
TRSEscan	1101	3	60.002	1	-524578563	7/23/2010	14:14:30	2	BlockProc	SessionList	2	2	2	19	NULL	NULL	NULL	NULL	19	3	41	Faces	NULL	NULL	NULL	Both	2	2390	0	291686	10	289396	3	NULL	NULL	face/m_075.bmp	NULL	NULL	NULL	NULL	NULL	NULL	Repeat	FFSFFFSFFSSFSFSSSFSS	NULL	NULL	NULL	TrialProc	Relevant	BlockList	1	2	0	289286	10	288796	2	770	289566
TRSEscan	1101	3	60.002	1	-524578563	7/23/2010	14:14:30	2	BlockProc	SessionList	2	2	2	20	NULL	NULL	NULL	NULL	20	3	42	Scenes	NULL	NULL	NULL	Both	1	4390	0	296685	10	292395	1	NULL	NULL	scene/s_036.bmp	NULL	NULL	NULL	NULL	NULL	NULL	Novel	FFSFFFSFFSSFSFSSSFSS	NULL	NULL	NULL	TrialProc	Relevant	BlockList	1	1	0	292285	9	291795	1	963	292758
TRSEscan	1101	3	60.002	1	-524578563	7/23/2010	14:14:30	2	BlockProc	SessionList	2	2	2	21	NULL	NULL	NULL	NULL	21	3	43	Scenes	NULL	NULL	NULL	Both	2	6390	0	303685	10	297395	0	NULL	NULL	scene/s_036.bmp	NULL	NULL	NULL	NULL	NULL	NULL	Repeat	FFSFFFSFFSSFSFSSSFSS	NULL	NULL	NULL	TrialProc	Relevant	BlockList	1	2	0	297285	10	296795	2	867	297662
TRSEscan	1101	3	60.002	1	-524578563	7/23/2010	14:14:30	2	BlockProc	SessionList	2	2	2	22	NULL	NULL	NULL	NULL	22	3	44		NULL	NULL	NULL	Both			NULL	NULL	NULL	NULL		318685	316795		NULL	NULL	NULL	NULL	NULL	NULL			NULL	NULL	NULL	FeedbackProc		BlockList	NULL	NULL	NULL	NULL	NULL	NULL	NULL	NULL	NULL
TRSEscan	1101	3	60.002	1	-524578563	7/23/2010	14:14:30	3	BlockProc	SessionList	2	2	3	1	-999999	320493	10	318795	1	4	45		1	2	630	Faces			NULL	NULL	NULL	NULL		NULL	NULL		337557	1	322129	0	338551	337561			0	340451	338561	InstrProc		BlockList	NULL	NULL	NULL	NULL	NULL	NULL	NULL	NULL	NULL
TRSEscan	1101	3	60.002	1	-524578563	7/23/2010	14:14:30	3	BlockProc	SessionList	2	2	3	2	NULL	NULL	NULL	NULL	2	4	46	Faces	NULL	NULL	NULL	Faces	1	4390	0	345451	10	341161	0	NULL	NULL	face/m_065.bmp	NULL	NULL	NULL	NULL	NULL	NULL	Novel	FFSFFFSFFSSFSFSSSFSS	NULL	NULL	NULL	TrialProc	Relevant	BlockList	1	1	0	341051	10	340561	1	364	340925
TRSEscan	1101	3	60.002	1	-524578563	7/23/2010	14:14:30	3	BlockProc	SessionList	2	2	3	3	NULL	NULL	NULL	NULL	3	4	47	Faces	NULL	NULL	NULL	Faces	1	2390	0	348451	10	346161	0	NULL	NULL	face/f_022.bmp	NULL	NULL	NULL	NULL	NULL	NULL	Novel	FFSFFFSFFSSFSFSSSFSS	NULL	NULL	NULL	TrialProc	Relevant	BlockList	1	1	0	346051	10	345561	1	692	346253
TRSEscan	1101	3	60.002	1	-524578563	7/23/2010	14:14:30	3	BlockProc	SessionList	2	2	3	4	NULL	NULL	NULL	NULL	4	4	48	Scenes	NULL	NULL	NULL	Faces	1	2390	0	351451	10	349161	2	NULL	NULL	scene/s_311.bmp	NULL	NULL	NULL	NULL	NULL	NULL	Novel	FFSFFFSFFSSFSFSSSFSS	NULL	NULL	NULL	TrialProc	Irrelevant	BlockList	1	1	0	349051	10	348561	1	547	349108
TRSEscan	1101	3	60.002	1	-524578563	7/23/2010	14:14:30	3	BlockProc	SessionList	2	2	3	5	NULL	NULL	NULL	NULL	5	4	49	Faces	NULL	NULL	NULL	Faces	1	6390	0	358451	10	352161	1	NULL	NULL	face/f_008.bmp	NULL	NULL	NULL	NULL	NULL	NULL	Novel	FFSFFFSFFSSFSFSSSFSS	NULL	NULL	NULL	TrialProc	Relevant	BlockList	1	1	0	352051	10	351561	1	515	352076
TRSEscan	1101	3	60.002	1	-524578563	7/23/2010	14:14:30	3	BlockProc	SessionList	2	2	3	6	NULL	NULL	NULL	NULL	6	4	50	Faces	NULL	NULL	NULL	Faces	2	4390	0	363450	10	359160	0	NULL	NULL	face/f_008.bmp	NULL	NULL	NULL	NULL	NULL	NULL	Repeat	FFSFFFSFFSSFSFSSSFSS	NULL	NULL	NULL	TrialProc	Relevant	BlockList	1	2	0	359050	9	358560	2	572	359132
TRSEscan	1101	3	60.002	1	-524578563	7/23/2010	14:14:30	3	BlockProc	SessionList	2	2	3	7	NULL	NULL	NULL	NULL	7	4	51	Faces	NULL	NULL	NULL	Faces	1	6390	0	370450	10	364160	0	NULL	NULL	face/f_035.bmp	NULL	NULL	NULL	NULL	NULL	NULL	Novel	FFSFFFSFFSSFSFSSSFSS	NULL	NULL	NULL	TrialProc	Relevant	BlockList	1	1	0	364050	10	363560	1	596	364156
TRSEscan	1101	3	60.002	1	-524578563	7/23/2010	14:14:30	3	BlockProc	SessionList	2	2	3	8	NULL	NULL	NULL	NULL	8	4	52	Scenes	NULL	NULL	NULL	Faces	1	2390	0	373450	10	371160	3	NULL	NULL	scene/s_389.bmp	NULL	NULL	NULL	NULL	NULL	NULL	Novel	FFSFFFSFFSSFSFSSSFSS	NULL	NULL	NULL	TrialProc	Irrelevant	BlockList	1	1	0	371050	10	370560	1	516	371076
TRSEscan	1101	3	60.002	1	-524578563	7/23/2010	14:14:30	3	BlockProc	SessionList	2	2	3	9	NULL	NULL	NULL	NULL	9	4	53	Faces	NULL	NULL	NULL	Faces	1	4390	0	378450	10	374160	1	NULL	NULL	face/m_121.bmp	NULL	NULL	NULL	NULL	NULL	NULL	Novel	FFSFFFSFFSSFSFSSSFSS	NULL	NULL	NULL	TrialProc	Relevant	BlockList	1	1	0	374050	10	373560	1	548	374108
TRSEscan	1101	3	60.002	1	-524578563	7/23/2010	14:14:30	3	BlockProc	SessionList	2	2	3	10	NULL	NULL	NULL	NULL	10	4	54	Faces	NULL	NULL	NULL	Faces	2	6390	0	385450	10	379160	0	NULL	NULL	face/m_121.bmp	NULL	NULL	NULL	NULL	NULL	NULL	Repeat	FFSFFFSFFSSFSFSSSFSS	NULL	NULL	NULL	TrialProc	Relevant	BlockList	1	2	0	379050	10	378560	2	660	379220
TRSEscan	1101	3	60.002	1	-524578563	7/23/2010	14:14:30	3	BlockProc	SessionList	2	2	3	11	NULL	NULL	NULL	NULL	11	4	55	Scenes	NULL	NULL	NULL	Faces	1	4390	0	390450	10	386160	2	NULL	NULL	scene/s_177.bmp	NULL	NULL	NULL	NULL	NULL	NULL	Novel	FFSFFFSFFSSFSFSSSFSS	NULL	NULL	NULL	TrialProc	Irrelevant	BlockList	1	1	0	386050	10	385560	1	516	386076
TRSEscan	1101	3	60.002	1	-524578563	7/23/2010	14:14:30	3	BlockProc	SessionList	2	2	3	12	NULL	NULL	NULL	NULL	12	4	56	Scenes	NULL	NULL	NULL	Faces	1	2390	0	393450	10	391160	0	NULL	NULL	scene/s_177.bmp	NULL	NULL	NULL	NULL	NULL	NULL	Repeat	FFSFFFSFFSSFSFSSSFSS	NULL	NULL	NULL	TrialProc	Irrelevant	BlockList	1	1	0	391050	10	390560	1	491	391051
TRSEscan	1101	3	60.002	1	-524578563	7/23/2010	14:14:30	3	BlockProc	SessionList	2	2	3	13	NULL	NULL	NULL	NULL	13	4	57	Faces	NULL	NULL	NULL	Faces	2	4390	0	398450	10	394160	2	NULL	NULL	face/m_121.bmp	NULL	NULL	NULL	NULL	NULL	NULL	Repeat	FFSFFFSFFSSFSFSSSFSS	NULL	NULL	NULL	TrialProc	Relevant	BlockList	1	2	0	394050	10	393560	2	579	394139
TRSEscan	1101	3	60.002	1	-524578563	7/23/2010	14:14:30	3	BlockProc	SessionList	2	2	3	14	NULL	NULL	NULL	NULL	14	4	58	Scenes	NULL	NULL	NULL	Faces	1	2390	0	401449	10	399159	1	NULL	NULL	scene/s_028.bmp	NULL	NULL	NULL	NULL	NULL	NULL	Novel	FFSFFFSFFSSFSFSSSFSS	NULL	NULL	NULL	TrialProc	Irrelevant	BlockList	1	1	0	399049	9	398559	1	540	399099
TRSEscan	1101	3	60.002	1	-524578563	7/23/2010	14:14:30	3	BlockProc	SessionList	2	2	3	15	NULL	NULL	NULL	NULL	15	4	59	Faces	NULL	NULL	NULL	Faces	1	6390	0	408449	10	402159	1	NULL	NULL	face/f_007.bmp	NULL	NULL	NULL	NULL	NULL	NULL	Novel	FFSFFFSFFSSFSFSSSFSS	NULL	NULL	NULL	TrialProc	Relevant	BlockList	1	1	0	402049	10	401559	1	580	402139
TRSEscan	1101	3	60.002	1	-524578563	7/23/2010	14:14:30	3	BlockProc	SessionList	2	2	3	16	NULL	NULL	NULL	NULL	16	4	60	Scenes	NULL	NULL	NULL	Faces	1	4390	0	413449	10	409159	1	NULL	NULL	scene/s_320.bmp	NULL	NULL	NULL	NULL	NULL	NULL	Novel	FFSFFFSFFSSFSFSSSFSS	NULL	NULL	NULL	TrialProc	Irrelevant	BlockList	1	1	0	409049	10	408559	1	580	409139
TRSEscan	1101	3	60.002	1	-524578563	7/23/2010	14:14:30	3	BlockProc	SessionList	2	2	3	17	NULL	NULL	NULL	NULL	17	4	61	Scenes	NULL	NULL	NULL	Faces	1	6390	0	420449	10	414159	0	NULL	NULL	scene/s_320.bmp	NULL	NULL	NULL	NULL	NULL	NULL	Repeat	FFSFFFSFFSSFSFSSSFSS	NULL	NULL	NULL	TrialProc	Irrelevant	BlockList	1	1	0	414049	10	413559	1	508	414067
TRSEscan	1101	3	60.002	1	-524578563	7/23/2010	14:14:30	3	BlockProc	SessionList	2	2	3	18	NULL	NULL	NULL	NULL	18	4	62	Scenes	NULL	NULL	NULL	Faces	1	2390	0	423449	10	421159	0	NULL	NULL	scene/s_320.bmp	NULL	NULL	NULL	NULL	NULL	NULL	Repeat	FFSFFFSFFSSFSFSSSFSS	NULL	NULL	NULL	TrialProc	Irrelevant	BlockList	1	1	0	421049	10	420559	1	540	421099
TRSEscan	1101	3	60.002	1	-524578563	7/23/2010	14:14:30	3	BlockProc	SessionList	2	2	3	19	NULL	NULL	NULL	NULL	19	4	63	Faces	NULL	NULL	NULL	Faces	2	2390	0	426449	10	424159	3	NULL	NULL	face/f_007.bmp	NULL	NULL	NULL	NULL	NULL	NULL	Repeat	FFSFFFSFFSSFSFSSSFSS	NULL	NULL	NULL	TrialProc	Relevant	BlockList	1	2	0	424049	10	423559	2	516	424075
TRSEscan	1101	3	60.002	1	-524578563	7/23/2010	14:14:30	3	BlockProc	SessionList	2	2	3	20	NULL	NULL	NULL	NULL	20	4	64	Scenes	NULL	NULL	NULL	Faces	1	4390	0	431449	10	427159	1	NULL	NULL	scene/s_401.bmp	NULL	NULL	NULL	NULL	NULL	NULL	Novel	FFSFFFSFFSSFSFSSSFSS	NULL	NULL	NULL	TrialProc	Irrelevant	BlockList	1	1	0	427049	10	426559	1	508	427067
TRSEscan	1101	3	60.002	1	-524578563	7/23/2010	14:14:30	3	BlockProc	SessionList	2	2	3	21	NULL	NULL	NULL	NULL	21	4	65	Scenes	NULL	NULL	NULL	Faces	1	6390	0	438449	10	432159	0	NULL	NULL	scene/s_401.bmp	NULL	NULL	NULL	NULL	NULL	NULL	Repeat	FFSFFFSFFSSFSFSSSFSS	NULL	NULL	NULL	TrialProc	Irrelevant	BlockList	1	1	0	432049	10	431559	1	451	432010
TRSEscan	1101	3	60.002	1	-524578563	7/23/2010	14:14:30	3	BlockProc	SessionList	2	2	3	22	NULL	NULL	NULL	NULL	22	4	66		NULL	NULL	NULL	Faces			NULL	NULL	NULL	NULL		453448	451558		NULL	NULL	NULL	NULL	NULL	NULL			NULL	NULL	NULL	FeedbackProc		BlockList	NULL	NULL	NULL	NULL	NULL	NULL	NULL	NULL	NULL
TRSEscan	1101	3	60.002	1	-524578563	7/23/2010	14:14:30	4	BlockProc	SessionList	2	2	4	1	-999999	456394	10	453558	1	5	67		1	2	730	Scenes			NULL	NULL	NULL	NULL		NULL	NULL		471873	1	458142	0	472864	471874			0	474764	472874	InstrProc		BlockList	NULL	NULL	NULL	NULL	NULL	NULL	NULL	NULL	NULL
TRSEscan	1101	3	60.002	1	-524578563	7/23/2010	14:14:30	4	BlockProc	SessionList	2	2	4	2	NULL	NULL	NULL	NULL	2	5	68	Faces	NULL	NULL	NULL	Scenes	1	4390	0	479764	10	475474	0	NULL	NULL	face/m_118.bmp	NULL	NULL	NULL	NULL	NULL	NULL	Novel	FFSFFFSFFSSFSFSSSFSS	NULL	NULL	NULL	TrialProc	Irrelevant	BlockList	1	1	0	475364	10	474874	1	399	475273
TRSEscan	1101	3	60.002	1	-524578563	7/23/2010	14:14:30	4	BlockProc	SessionList	2	2	4	3	NULL	NULL	NULL	NULL	3	5	69	Faces	NULL	NULL	NULL	Scenes	1	2390	0	482764	10	480474	0	NULL	NULL	face/f_132.bmp	NULL	NULL	NULL	NULL	NULL	NULL	Novel	FFSFFFSFFSSFSFSSSFSS	NULL	NULL	NULL	TrialProc	Irrelevant	BlockList	1	1	0	480364	10	479874	1	415	480289
TRSEscan	1101	3	60.002	1	-524578563	7/23/2010	14:14:30	4	BlockProc	SessionList	2	2	4	4	NULL	NULL	NULL	NULL	4	5	70	Scenes	NULL	NULL	NULL	Scenes	1	2390	0	485764	10	483474	2	NULL	NULL	scene/s_064.bmp	NULL	NULL	NULL	NULL	NULL	NULL	Novel	FFSFFFSFFSSFSFSSSFSS	NULL	NULL	NULL	TrialProc	Relevant	BlockList	1	1	0	483364	10	482874	1	959	483833
TRSEscan	1101	3	60.002	1	-524578563	7/23/2010	14:14:30	4	BlockProc	SessionList	2	2	4	5	NULL	NULL	NULL	NULL	5	5	71	Faces	NULL	NULL	NULL	Scenes	1	6390	0	492764	10	486474	1	NULL	NULL	face/f_017.bmp	NULL	NULL	NULL	NULL	NULL	NULL	Novel	FFSFFFSFFSSFSFSSSFSS	NULL	NULL	NULL	TrialProc	Irrelevant	BlockList	1	1	0	486364	10	485874	1	479	486353
TRSEscan	1101	3	60.002	1	-524578563	7/23/2010	14:14:30	4	BlockProc	SessionList	2	2	4	6	NULL	NULL	NULL	NULL	6	5	72	Faces	NULL	NULL	NULL	Scenes	1	4390	0	497764	10	493474	0	NULL	NULL	face/f_017.bmp	NULL	NULL	NULL	NULL	NULL	NULL	Repeat	FFSFFFSFFSSFSFSSSFSS	NULL	NULL	NULL	TrialProc	Irrelevant	BlockList	1	1	0	493364	10	492874	1	447	493321
TRSEscan	1101	3	60.002	1	-524578563	7/23/2010	14:14:30	4	BlockProc	SessionList	2	2	4	7	NULL	NULL	NULL	NULL	7	5	73	Faces	NULL	NULL	NULL	Scenes	1	6390	0	504764	10	498474	0	NULL	NULL	face/m_110.bmp	NULL	NULL	NULL	NULL	NULL	NULL	Novel	FFSFFFSFFSSFSFSSSFSS	NULL	NULL	NULL	TrialProc	Irrelevant	BlockList	1	1	0	498364	10	497874	1	399	498273
TRSEscan	1101	3	60.002	1	-524578563	7/23/2010	14:14:30	4	BlockProc	SessionList	2	2	4	8	NULL	NULL	NULL	NULL	8	5	74	Scenes	NULL	NULL	NULL	Scenes	1	2390	0	507763	10	505473	3	NULL	NULL	scene/s_289.bmp	NULL	NULL	NULL	NULL	NULL	NULL	Novel	FFSFFFSFFSSFSFSSSFSS	NULL	NULL	NULL	TrialProc	Relevant	BlockList	1	1	0	505363	9	504873	1	624	505497
TRSEscan	1101	3	60.002	1	-524578563	7/23/2010	14:14:30	4	BlockProc	SessionList	2	2	4	9	NULL	NULL	NULL	NULL	9	5	75	Faces	NULL	NULL	NULL	Scenes	1	4390	0	512763	10	508473	1	NULL	NULL	face/m_001.bmp	NULL	NULL	NULL	NULL	NULL	NULL	Novel	FFSFFFSFFSSFSFSSSFSS	NULL	NULL	NULL	TrialProc	Irrelevant	BlockList	1	1	0	508363	10	507873	1	616	508489
TRSEscan	1101	3	60.002	1	-524578563	7/23/2010	14:14:30	4	BlockProc	SessionList	2	2	4	10	NULL	NULL	NULL	NULL	10	5	76	Faces	NULL	NULL	NULL	Scenes	1	6390	0	519763	10	513473	0	NULL	NULL	face/m_001.bmp	NULL	NULL	NULL	NULL	NULL	NULL	Repeat	FFSFFFSFFSSFSFSSSFSS	NULL	NULL	NULL	TrialProc	Irrelevant	BlockList	1	1	0	513363	10	512873	1	399	513272
TRSEscan	1101	3	60.002	1	-524578563	7/23/2010	14:14:30	4	BlockProc	SessionList	2	2	4	11	NULL	NULL	NULL	NULL	11	5	77	Scenes	NULL	NULL	NULL	Scenes	1	4390	0	524763	10	520473	2	NULL	NULL	scene/s_259.bmp	NULL	NULL	NULL	NULL	NULL	NULL	Novel	FFSFFFSFFSSFSFSSSFSS	NULL	NULL	NULL	TrialProc	Relevant	BlockList	1	1	0	520363	10	519873	1	455	520328
TRSEscan	1101	3	60.002	1	-524578563	7/23/2010	14:14:30	4	BlockProc	SessionList	2	2	4	12	NULL	NULL	NULL	NULL	12	5	78	Scenes	NULL	NULL	NULL	Scenes	2	2390	0	527763	10	525473	0	NULL	NULL	scene/s_259.bmp	NULL	NULL	NULL	NULL	NULL	NULL	Repeat	FFSFFFSFFSSFSFSSSFSS	NULL	NULL	NULL	TrialProc	Relevant	BlockList	1	2	0	525363	10	524873	2	607	525480
TRSEscan	1101	3	60.002	1	-524578563	7/23/2010	14:14:30	4	BlockProc	SessionList	2	2	4	13	NULL	NULL	NULL	NULL	13	5	79	Faces	NULL	NULL	NULL	Scenes	1	4390	0	532763	10	528473	2	NULL	NULL	face/m_001.bmp	NULL	NULL	NULL	NULL	NULL	NULL	Repeat	FFSFFFSFFSSFSFSSSFSS	NULL	NULL	NULL	TrialProc	Irrelevant	BlockList	1	1	0	528363	10	527873	1	511	528384
TRSEscan	1101	3	60.002	1	-524578563	7/23/2010	14:14:30	4	BlockProc	SessionList	2	2	4	14	NULL	NULL	NULL	NULL	14	5	80	Scenes	NULL	NULL	NULL	Scenes	1	2390	0	535763	10	533473	1	NULL	NULL	scene/s_222.bmp	NULL	NULL	NULL	NULL	NULL	NULL	Novel	FFSFFFSFFSSFSFSSSFSS	NULL	NULL	NULL	TrialProc	Relevant	BlockList	1	1	0	533363	10	532873	1	679	533552
TRSEscan	1101	3	60.002	1	-524578563	7/23/2010	14:14:30	4	BlockProc	SessionList	2	2	4	15	NULL	NULL	NULL	NULL	15	5	81	Faces	NULL	NULL	NULL	Scenes	1	6390	0	542763	10	536473	1	NULL	NULL	face/f_094.bmp	NULL	NULL	NULL	NULL	NULL	NULL	Novel	FFSFFFSFFSSFSFSSSFSS	NULL	NULL	NULL	TrialProc	Irrelevant	BlockList	1	1	0	536363	10	535873	1	671	536544
TRSEscan	1101	3	60.002	1	-524578563	7/23/2010	14:14:30	4	BlockProc	SessionList	2	2	4	16	NULL	NULL	NULL	NULL	16	5	82	Scenes	NULL	NULL	NULL	Scenes	1	4390	0	547763	10	543473	1	NULL	NULL	scene/s_284.bmp	NULL	NULL	NULL	NULL	NULL	NULL	Novel	FFSFFFSFFSSFSFSSSFSS	NULL	NULL	NULL	TrialProc	Relevant	BlockList	1	1	0	543363	10	542873	1	639	543512
TRSEscan	1101	3	60.002	1	-524578563	7/23/2010	14:14:30	4	BlockProc	SessionList	2	2	4	17	NULL	NULL	NULL	NULL	17	5	83	Scenes	NULL	NULL	NULL	Scenes	2	6390	0	554762	10	548472	0	NULL	NULL	scene/s_284.bmp	NULL	NULL	NULL	NULL	NULL	NULL	Repeat	FFSFFFSFFSSFSFSSSFSS	NULL	NULL	NULL	TrialProc	Relevant	BlockList	1	2	0	548362	9	547872	2	551	548423
TRSEscan	1101	3	60.002	1	-524578563	7/23/2010	14:14:30	4	BlockProc	SessionList	2	2	4	18	NULL	NULL	NULL	NULL	18	5	84	Scenes	NULL	NULL	NULL	Scenes	2	2390	0	557762	10	555472	0	NULL	NULL	scene/s_284.bmp	NULL	NULL	NULL	NULL	NULL	NULL	Repeat	FFSFFFSFFSSFSFSSSFSS	NULL	NULL	NULL	TrialProc	Relevant	BlockList	1	2	0	555362	10	554872	2	471	555343
TRSEscan	1101	3	60.002	1	-524578563	7/23/2010	14:14:30	4	BlockProc	SessionList	2	2	4	19	NULL	NULL	NULL	NULL	19	5	85	Faces	NULL	NULL	NULL	Scenes	1	2390	0	560762	10	558472	3	NULL	NULL	face/f_094.bmp	NULL	NULL	NULL	NULL	NULL	NULL	Repeat	FFSFFFSFFSSFSFSSSFSS	NULL	NULL	NULL	TrialProc	Irrelevant	BlockList	1	1	0	558362	10	557872	1	487	558359
TRSEscan	1101	3	60.002	1	-524578563	7/23/2010	14:14:30	4	BlockProc	SessionList	2	2	4	20	NULL	NULL	NULL	NULL	20	5	86	Scenes	NULL	NULL	NULL	Scenes	1	4390	0	565762	10	561472	1	NULL	NULL	scene/s_204.bmp	NULL	NULL	NULL	NULL	NULL	NULL	Novel	FFSFFFSFFSSFSFSSSFSS	NULL	NULL	NULL	TrialProc	Relevant	BlockList	1	1	0	561362	10	560872	1	703	561575
TRSEscan	1101	3	60.002	1	-524578563	7/23/2010	14:14:30	4	BlockProc	SessionList	2	2	4	21	NULL	NULL	NULL	NULL	21	5	87	Scenes	NULL	NULL	NULL	Scenes	2	6390	0	572762	10	566472	0	NULL	NULL	scene/s_204.bmp	NULL	NULL	NULL	NULL	NULL	NULL	Repeat	FFSFFFSFFSSFSFSSSFSS	NULL	NULL	NULL	TrialProc	Relevant	BlockList	1	2	0	566362	10	565872	2	575	566447
TRSEscan	1101	3	60.002	1	-524578563	7/23/2010	14:14:30	4	BlockProc	SessionList	2	2	4	22	NULL	NULL	NULL	NULL	22	5	88		NULL	NULL	NULL	Scenes			NULL	NULL	NULL	NULL		587761	585871		NULL	NULL	NULL	NULL	NULL	NULL			NULL	NULL	NULL	FeedbackProc		BlockList	NULL	NULL	NULL	NULL	NULL	NULL	NULL	NULL	NULL
TRSEscan	1101	4	60.002	1	572583085	7/23/2010	14:24:46	1	BlockProc	SessionList	2	2	1	1	-999999	76661	1	72320	1	2	1		1	2	839	Both			NULL	NULL	NULL	NULL		NULL	NULL		87853	1	78521	0	88844	87854			0	90743	88853	InstrProc		BlockList	NULL	NULL	NULL	NULL	NULL	NULL	NULL	NULL	NULL
TRSEscan	1101	4	60.002	1	572583085	7/23/2010	14:24:46	1	BlockProc	SessionList	2	2	1	2	NULL	NULL	NULL	NULL	2	2	2	Scenes	NULL	NULL	NULL	Both	1	2390	0	93743	10	91453	0	NULL	NULL	scene/s_286.bmp	NULL	NULL	NULL	NULL	NULL	NULL	Novel	SSFSSSFSFSSFFSFFFSFF	NULL	NULL	NULL	TrialProc	Relevant	BlockList	1	1	0	91343	10	90853	1	344	91197
TRSEscan	1101	4	60.002	1	572583085	7/23/2010	14:24:46	1	BlockProc	SessionList	2	2	1	3	NULL	NULL	NULL	NULL	3	2	3	Scenes	NULL	NULL	NULL	Both	2	4390	0	98743	10	94453	0	NULL	NULL	scene/s_286.bmp	NULL	NULL	NULL	NULL	NULL	NULL	Repeat	SSFSSSFSFSSFFSFFFSFF	NULL	NULL	NULL	TrialProc	Relevant	BlockList	1	2	0	94343	10	93853	2	600	94453
TRSEscan	1101	4	60.002	1	572583085	7/23/2010	14:24:46	1	BlockProc	SessionList	2	2	1	4	NULL	NULL	NULL	NULL	4	2	4	Faces	NULL	NULL	NULL	Both	1	6390	0	105743	10	99453	2	NULL	NULL	face/f_019.bmp	NULL	NULL	NULL	NULL	NULL	NULL	Novel	SSFSSSFSFSSFFSFFFSFF	NULL	NULL	NULL	TrialProc	Relevant	BlockList	1	1	0	99343	10	98853	1	448	99301
TRSEscan	1101	4	60.002	1	572583085	7/23/2010	14:24:46	1	BlockProc	SessionList	2	2	1	5	NULL	NULL	NULL	NULL	5	2	5	Scenes	NULL	NULL	NULL	Both	2	4390	0	110743	10	106453	1	NULL	NULL	scene/s_286.bmp	NULL	NULL	NULL	NULL	NULL	NULL	Repeat	SSFSSSFSFSSFFSFFFSFF	NULL	NULL	NULL	TrialProc	Relevant	BlockList	1	2	0	106343	10	105853	2	543	106396
TRSEscan	1101	4	60.002	1	572583085	7/23/2010	14:24:46	1	BlockProc	SessionList	2	2	1	6	NULL	NULL	NULL	NULL	6	2	6	Scenes	NULL	NULL	NULL	Both	1	2390	0	113743	10	111453	0	NULL	NULL	scene/s_135.bmp	NULL	NULL	NULL	NULL	NULL	NULL	Novel	SSFSSSFSFSSFFSFFFSFF	NULL	NULL	NULL	TrialProc	Relevant	BlockList	1	1	0	111343	10	110853	1	727	111580
TRSEscan	1101	4	60.002	1	572583085	7/23/2010	14:24:46	1	BlockProc	SessionList	2	2	1	7	NULL	NULL	NULL	NULL	7	2	7	Scenes	NULL	NULL	NULL	Both	1	4390	0	118743	10	114453	0	NULL	NULL	scene/s_191.bmp	NULL	NULL	NULL	NULL	NULL	NULL	Novel	SSFSSSFSFSSFFSFFFSFF	NULL	NULL	NULL	TrialProc	Relevant	BlockList	1	1	0	114343	10	113853	1	639	114492
TRSEscan	1101	4	60.002	1	572583085	7/23/2010	14:24:46	1	BlockProc	SessionList	2	2	1	8	NULL	NULL	NULL	NULL	8	2	8	Faces	NULL	NULL	NULL	Both	2	2390	0	121742	10	119452	3	NULL	NULL	face/f_019.bmp	NULL	NULL	NULL	NULL	NULL	NULL	Repeat	SSFSSSFSFSSFFSFFFSFF	NULL	NULL	NULL	TrialProc	Relevant	BlockList	1	2	0	119342	9	118852	2	584	119436
TRSEscan	1101	4	60.002	1	572583085	7/23/2010	14:24:46	1	BlockProc	SessionList	2	2	1	9	NULL	NULL	NULL	NULL	9	2	9	Scenes	NULL	NULL	NULL	Both	2	6390	0	128742	10	122452	1	NULL	NULL	scene/s_191.bmp	NULL	NULL	NULL	NULL	NULL	NULL	Repeat	SSFSSSFSFSSFFSFFFSFF	NULL	NULL	NULL	TrialProc	Relevant	BlockList	1	2	0	122342	10	121852	2	872	122724
TRSEscan	1101	4	60.002	1	572583085	7/23/2010	14:24:46	1	BlockProc	SessionList	2	2	1	10	NULL	NULL	NULL	NULL	10	2	10	Faces	NULL	NULL	NULL	Both	2	4390	0	133742	10	129452	1	NULL	NULL	face/f_019.bmp	NULL	NULL	NULL	NULL	NULL	NULL	Repeat	SSFSSSFSFSSFFSFFFSFF	NULL	NULL	NULL	TrialProc	Relevant	BlockList	1	2	0	129342	10	128852	2	584	129436
TRSEscan	1101	4	60.002	1	572583085	7/23/2010	14:24:46	1	BlockProc	SessionList	2	2	1	11	NULL	NULL	NULL	NULL	11	2	11	Scenes	NULL	NULL	NULL	Both	1	6390	0	140742	10	134452	1	NULL	NULL	scene/s_367.bmp	NULL	NULL	NULL	NULL	NULL	NULL	Novel	SSFSSSFSFSSFFSFFFSFF	NULL	NULL	NULL	TrialProc	Relevant	BlockList	1	1	0	134342	10	133852	1	536	134388
TRSEscan	1101	4	60.002	1	572583085	7/23/2010	14:24:46	1	BlockProc	SessionList	2	2	1	12	NULL	NULL	NULL	NULL	12	2	12	Scenes	NULL	NULL	NULL	Both	1	2390	0	143742	10	141452	0	NULL	NULL	scene/s_089.bmp	NULL	NULL	NULL	NULL	NULL	NULL	Novel	SSFSSSFSFSSFFSFFFSFF	NULL	NULL	NULL	TrialProc	Relevant	BlockList	1	1	0	141342	10	140852	1	888	141740
TRSEscan	1101	4	60.002	1	572583085	7/23/2010	14:24:46	1	BlockProc	SessionList	2	2	1	13	NULL	NULL	NULL	NULL	13	2	13	Faces	NULL	NULL	NULL	Both	1	2390	0	146742	10	144452	2	NULL	NULL	face/m_094.bmp	NULL	NULL	NULL	NULL	NULL	NULL	Novel	SSFSSSFSFSSFFSFFFSFF	NULL	NULL	NULL	TrialProc	Relevant	BlockList	1	1	0	144342	10	143852	1	616	144468
TRSEscan	1101	4	60.002	1	572583085	7/23/2010	14:24:46	1	BlockProc	SessionList	2	2	1	14	NULL	NULL	NULL	NULL	14	2	14	Faces	NULL	NULL	NULL	Both	1	6390	0	153742	10	147452	0	NULL	NULL	face/f_125.bmp	NULL	NULL	NULL	NULL	NULL	NULL	Novel	SSFSSSFSFSSFFSFFFSFF	NULL	NULL	NULL	TrialProc	Relevant	BlockList	1	1	0	147342	10	146852	1	567	147419
TRSEscan	1101	4	60.002	1	572583085	7/23/2010	14:24:46	1	BlockProc	SessionList	2	2	1	15	NULL	NULL	NULL	NULL	15	2	15	Scenes	NULL	NULL	NULL	Both	1	4390	0	158742	10	154452	2	NULL	NULL	scene/s_197.bmp	NULL	NULL	NULL	NULL	NULL	NULL	Novel	SSFSSSFSFSSFFSFFFSFF	NULL	NULL	NULL	TrialProc	Relevant	BlockList	1	1	0	154342	10	153852	1	663	154515
TRSEscan	1101	4	60.002	1	572583085	7/23/2010	14:24:46	1	BlockProc	SessionList	2	2	1	16	NULL	NULL	NULL	NULL	16	2	16	Faces	NULL	NULL	NULL	Both	2	6390	0	165741	10	159451	1	NULL	NULL	face/f_125.bmp	NULL	NULL	NULL	NULL	NULL	NULL	Repeat	SSFSSSFSFSSFFSFFFSFF	NULL	NULL	NULL	TrialProc	Relevant	BlockList	1	2	0	159341	9	158851	2	592	159443
TRSEscan	1101	4	60.002	1	572583085	7/23/2010	14:24:46	1	BlockProc	SessionList	2	2	1	17	NULL	NULL	NULL	NULL	17	2	17	Faces	NULL	NULL	NULL	Both	1	2390	0	168741	10	166451	0	NULL	NULL	face/m_107.bmp	NULL	NULL	NULL	NULL	NULL	NULL	Novel	SSFSSSFSFSSFFSFFFSFF	NULL	NULL	NULL	TrialProc	Relevant	BlockList	1	1	0	166341	10	165851	1	552	166403
TRSEscan	1101	4	60.002	1	572583085	7/23/2010	14:24:46	1	BlockProc	SessionList	2	2	1	18	NULL	NULL	NULL	NULL	18	2	18	Faces	NULL	NULL	NULL	Both	1	4390	0	173741	10	169451	0	NULL	NULL	face/f_091.bmp	NULL	NULL	NULL	NULL	NULL	NULL	Novel	SSFSSSFSFSSFFSFFFSFF	NULL	NULL	NULL	TrialProc	Relevant	BlockList	1	1	0	169341	10	168851	1	608	169459
TRSEscan	1101	4	60.002	1	572583085	7/23/2010	14:24:46	1	BlockProc	SessionList	2	2	1	19	NULL	NULL	NULL	NULL	19	2	19	Scenes	NULL	NULL	NULL	Both	2	2390	0	176741	10	174451	3	NULL	NULL	scene/s_197.bmp	NULL	NULL	NULL	NULL	NULL	NULL	Repeat	SSFSSSFSFSSFFSFFFSFF	NULL	NULL	NULL	TrialProc	Relevant	BlockList	1	2	0	174341	10	173851	2	784	174635
TRSEscan	1101	4	60.002	1	572583085	7/23/2010	14:24:46	1	BlockProc	SessionList	2	2	1	20	NULL	NULL	NULL	NULL	20	2	20	Faces	NULL	NULL	NULL	Both	1	4390	0	181741	10	177451	1	NULL	NULL	face/m_099.bmp	NULL	NULL	NULL	NULL	NULL	NULL	Novel	SSFSSSFSFSSFFSFFFSFF	NULL	NULL	NULL	TrialProc	Relevant	BlockList	1	1	0	177341	10	176851	1	632	177483
TRSEscan	1101	4	60.002	1	572583085	7/23/2010	14:24:46	1	BlockProc	SessionList	2	2	1	21	NULL	NULL	NULL	NULL	21	2	21	Faces	NULL	NULL	NULL	Both	2	6390	0	188741	10	182451	0	NULL	NULL	face/m_099.bmp	NULL	NULL	NULL	NULL	NULL	NULL	Repeat	SSFSSSFSFSSFFSFFFSFF	NULL	NULL	NULL	TrialProc	Relevant	BlockList	0	2	0	182341	10	181851	1	416	182267
TRSEscan	1101	4	60.002	1	572583085	7/23/2010	14:24:46	1	BlockProc	SessionList	2	2	1	22	NULL	NULL	NULL	NULL	22	2	22		NULL	NULL	NULL	Both			NULL	NULL	NULL	NULL		203740	201850		NULL	NULL	NULL	NULL	NULL	NULL			NULL	NULL	NULL	FeedbackProc		BlockList	NULL	NULL	NULL	NULL	NULL	NULL	NULL	NULL	NULL
TRSEscan	1101	4	60.002	1	572583085	7/23/2010	14:24:46	2	BlockProc	SessionList	2	2	2	1	-999999	205562	10	203850	1	3	23		1	2	603	Faces			NULL	NULL	NULL	NULL		NULL	NULL		223218	1	207185	0	224223	223233			0	226123	224233	InstrProc		BlockList	NULL	NULL	NULL	NULL	NULL	NULL	NULL	NULL	NULL
TRSEscan	1101	4	60.002	1	572583085	7/23/2010	14:24:46	2	BlockProc	SessionList	2	2	2	2	NULL	NULL	NULL	NULL	2	3	24	Scenes	NULL	NULL	NULL	Faces	1	2390	0	229123	10	226833	0	NULL	NULL	scene/s_152.bmp	NULL	NULL	NULL	NULL	NULL	NULL	Novel	SSFSSSFSFSSFFSFFFSFF	NULL	NULL	NULL	TrialProc	Irrelevant	BlockList	1	1	0	226723	10	226233	1	648	226881
TRSEscan	1101	4	60.002	1	572583085	7/23/2010	14:24:46	2	BlockProc	SessionList	2	2	2	3	NULL	NULL	NULL	NULL	3	3	25	Scenes	NULL	NULL	NULL	Faces	1	4390	0	234123	10	229833	0	NULL	NULL	scene/s_152.bmp	NULL	NULL	NULL	NULL	NULL	NULL	Repeat	SSFSSSFSFSSFFSFFFSFF	NULL	NULL	NULL	TrialProc	Irrelevant	BlockList	1	1	0	229723	10	229233	1	392	229625
TRSEscan	1101	4	60.002	1	572583085	7/23/2010	14:24:46	2	BlockProc	SessionList	2	2	2	4	NULL	NULL	NULL	NULL	4	3	26	Faces	NULL	NULL	NULL	Faces	1	6390	0	241123	10	234833	2	NULL	NULL	face/m_013.bmp	NULL	NULL	NULL	NULL	NULL	NULL	Novel	SSFSSSFSFSSFFSFFFSFF	NULL	NULL	NULL	TrialProc	Relevant	BlockList	1	1	0	234723	10	234233	1	656	234889
TRSEscan	1101	4	60.002	1	572583085	7/23/2010	14:24:46	2	BlockProc	SessionList	2	2	2	5	NULL	NULL	NULL	NULL	5	3	27	Scenes	NULL	NULL	NULL	Faces	1	4390	0	246123	10	241833	1	NULL	NULL	scene/s_152.bmp	NULL	NULL	NULL	NULL	NULL	NULL	Repeat	SSFSSSFSFSSFFSFFFSFF	NULL	NULL	NULL	TrialProc	Irrelevant	BlockList	1	1	0	241723	10	241233	1	656	241889
TRSEscan	1101	4	60.002	1	572583085	7/23/2010	14:24:46	2	BlockProc	SessionList	2	2	2	6	NULL	NULL	NULL	NULL	6	3	28	Scenes	NULL	NULL	NULL	Faces	1	2390	0	249123	10	246833	0	NULL	NULL	scene/s_443.bmp	NULL	NULL	NULL	NULL	NULL	NULL	Novel	SSFSSSFSFSSFFSFFFSFF	NULL	NULL	NULL	TrialProc	Irrelevant	BlockList	1	1	0	246723	10	246233	1	448	246681
TRSEscan	1101	4	60.002	1	572583085	7/23/2010	14:24:46	2	BlockProc	SessionList	2	2	2	7	NULL	NULL	NULL	NULL	7	3	29	Scenes	NULL	NULL	NULL	Faces	1	4390	0	254122	9	249832	0	NULL	NULL	scene/s_194.bmp	NULL	NULL	NULL	NULL	NULL	NULL	Novel	SSFSSSFSFSSFFSFFFSFF	NULL	NULL	NULL	TrialProc	Irrelevant	BlockList	1	1	0	249723	10	249233	1	752	249985
TRSEscan	1101	4	60.002	1	572583085	7/23/2010	14:24:46	2	BlockProc	SessionList	2	2	2	8	NULL	NULL	NULL	NULL	8	3	30	Faces	NULL	NULL	NULL	Faces	2	2390	0	257122	10	254832	3	NULL	NULL	face/m_013.bmp	NULL	NULL	NULL	NULL	NULL	NULL	Repeat	SSFSSSFSFSSFFSFFFSFF	NULL	NULL	NULL	TrialProc	Relevant	BlockList	1	2	0	254722	10	254232	2	753	254985
TRSEscan	1101	4	60.002	1	572583085	7/23/2010	14:24:46	2	BlockProc	SessionList	2	2	2	9	NULL	NULL	NULL	NULL	9	3	31	Scenes	NULL	NULL	NULL	Faces	1	6390	0	264122	10	257832	1	NULL	NULL	scene/s_194.bmp	NULL	NULL	NULL	NULL	NULL	NULL	Repeat	SSFSSSFSFSSFFSFFFSFF	NULL	NULL	NULL	TrialProc	Irrelevant	BlockList	1	1	0	257722	10	257232	1	537	257769
TRSEscan	1101	4	60.002	1	572583085	7/23/2010	14:24:46	2	BlockProc	SessionList	2	2	2	10	NULL	NULL	NULL	NULL	10	3	32	Faces	NULL	NULL	NULL	Faces	2	4390	0	269122	10	264832	1	NULL	NULL	face/m_013.bmp	NULL	NULL	NULL	NULL	NULL	NULL	Repeat	SSFSSSFSFSSFFSFFFSFF	NULL	NULL	NULL	TrialProc	Relevant	BlockList	1	2	0	264722	10	264232	2	641	264873
TRSEscan	1101	4	60.002	1	572583085	7/23/2010	14:24:46	2	BlockProc	SessionList	2	2	2	11	NULL	NULL	NULL	NULL	11	3	33	Scenes	NULL	NULL	NULL	Faces	1	6390	0	276122	10	269832	1	NULL	NULL	scene/s_092.bmp	NULL	NULL	NULL	NULL	NULL	NULL	Novel	SSFSSSFSFSSFFSFFFSFF	NULL	NULL	NULL	TrialProc	Irrelevant	BlockList	1	1	0	269722	10	269232	1	600	269832
TRSEscan	1101	4	60.002	1	572583085	7/23/2010	14:24:46	2	BlockProc	SessionList	2	2	2	12	NULL	NULL	NULL	NULL	12	3	34	Scenes	NULL	NULL	NULL	Faces	1	2390	0	279122	10	276832	0	NULL	NULL	scene/s_199.bmp	NULL	NULL	NULL	NULL	NULL	NULL	Novel	SSFSSSFSFSSFFSFFFSFF	NULL	NULL	NULL	TrialProc	Irrelevant	BlockList	1	1	0	276722	10	276232	1	480	276712
