ExperimentName	Subject	Session	Display.RefreshRate	Group	RandomSeed	SessionDate	SessionTime	Block	Procedure[Block]	Running[Block]	SessionList	SessionList.Cycle	SessionList.Sample	Trial	BlockInstr.OffsetDelay	BlockInstr.OffsetTime	BlockInstr.OnsetDelay	BlockInstr.OnsetTime	BlockList	BlockList.Cycle	BlockList.Sample	Category	Challenge.ACC	Challenge.RESP	Challenge.RT	Condition	CorrResp	Delay	DelayFixation.OffsetDelay	DelayFixation.OffsetTime	DelayFixation.OnsetDelay	DelayFixation.OnsetTime	Distractors	Feedback.OffsetTime	Feedback.OnsetTime	Filename	GetReady.OffsetTime	GetReady.OnsetDelay	GetReady.OnsetTime	Go.OffsetDelay	Go.OffsetTime	Go.OnsetTime	Novelty	Permutation	PostGoFixation.OffsetDelay	PostGoFixation.OffsetTime	PostGoFixation.OnsetTime	Procedure[Trial]	Relevance	Running[Trial]	Stim.ACC	Stim.CRESP	Stim.OffsetDelay	Stim.OffsetTime	Stim.OnsetDelay	Stim.OnsetTime	Stim.RESP	Stim.RT	Stim.RTTime
TRSEscan	1111	1	60.002	1	1874787205	8/5/2010	10:47:55	1	BlockProc	SessionList	2	1	2	1	-999999	111819	14	105873	1	2	1		1	2	1909	Faces			NULL	NULL	NULL	NULL		NULL	NULL		124803	1	114740	0	125796	124806			0	127695	125805	InstrProc		BlockList	NULL	NULL	NULL	NULL	NULL	NULL	NULL	NULL	NULL
TRSEscan	1111	1	60.002	1	1874787205	8/5/2010	10:47:55	1	BlockProc	SessionList	2	1	2	2	NULL	NULL	NULL	NULL	2	2	2	Scenes	NULL	NULL	NULL	Faces	1	4390	0	132695	10	128405	0	NULL	NULL	scene/s_364.bmp	NULL	NULL	NULL	NULL	NULL	NULL	Novel	SFFSFSSSFSSFSSFFFSFF	NULL	NULL	NULL	TrialProc	Irrelevant	BlockList	1	1	0	128295	10	127805	1	558	128363
TRSEscan	1111	1	60.002	1	1874787205	8/5/2010	10:47:55	1	BlockProc	SessionList	2	1	2	3	NULL	NULL	NULL	NULL	3	2	3	Faces	NULL	NULL	NULL	Faces	1	2390	0	135695	10	133405	1	NULL	NULL	face/m_120.bmp	NULL	NULL	NULL	NULL	NULL	NULL	Novel	SFFSFSSSFSSFSSFFFSFF	NULL	NULL	NULL	TrialProc	Relevant	BlockList	1	1	0	133295	10	132805	1	582	133387
TRSEscan	1111	1	60.002	1	1874787205	8/5/2010	10:47:55	1	BlockProc	SessionList	2	1	2	4	NULL	NULL	NULL	NULL	4	2	4	Faces	NULL	NULL	NULL	Faces	1	2390	0	138695	10	136405	0	NULL	NULL	face/m_014.bmp	NULL	NULL	NULL	NULL	NULL	NULL	Novel	SFFSFSSSFSSFSSFFFSFF	NULL	NULL	NULL	TrialProc	Relevant	BlockList	0	1	0	136295	10	135805	2	1046	136851
TRSEscan	1111	1	60.002	1	1874787205	8/5/2010	10:47:55	1	BlockProc	SessionList	2	1	2	5	NULL	NULL	NULL	NULL	5	2	5	Scenes	NULL	NULL	NULL	Faces	1	4390	0	143695	10	139405	2	NULL	NULL	scene/s_200.bmp	NULL	NULL	NULL	NULL	NULL	NULL	Novel	SFFSFSSSFSSFSSFFFSFF	NULL	NULL	NULL	TrialProc	Irrelevant	BlockList	1	1	0	139295	10	138805	1	1398	140203
TRSEscan	1111	1	60.002	1	1874787205	8/5/2010	10:47:55	1	BlockProc	SessionList	2	1	2	6	NULL	NULL	NULL	NULL	6	2	6	Faces	NULL	NULL	NULL	Faces	2	6390	0	150695	10	144405	1	NULL	NULL	face/m_014.bmp	NULL	NULL	NULL	NULL	NULL	NULL	Repeat	SFFSFSSSFSSFSSFFFSFF	NULL	NULL	NULL	TrialProc	Relevant	BlockList	1	2	0	144295	10	143805	2	1173	144978
TRSEscan	1111	1	60.002	1	1874787205	8/5/2010	10:47:55	1	BlockProc	SessionList	2	1	2	7	NULL	NULL	NULL	NULL	7	2	7	Scenes	NULL	NULL	NULL	Faces	1	6390	0	157695	10	151405	1	NULL	NULL	scene/s_200.bmp	NULL	NULL	NULL	NULL	NULL	NULL	Repeat	SFFSFSSSFSSFSSFFFSFF	NULL	NULL	NULL	TrialProc	Irrelevant	BlockList	1	1	0	151295	10	150805	1	1189	151994
TRSEscan	1111	1	60.002	1	1874787205	8/5/2010	10:47:55	1	BlockProc	SessionList	2	1	2	8	NULL	NULL	NULL	NULL	8	2	8	Scenes	NULL	NULL	NULL	Faces	1	4390	0	162695	10	158405	0	NULL	NULL	scene/s_004.bmp	NULL	NULL	NULL	NULL	NULL	NULL	Novel	SFFSFSSSFSSFSSFFFSFF	NULL	NULL	NULL	TrialProc	Irrelevant	BlockList	1	1	0	158295	10	157805	1	773	158578
TRSEscan	1111	1	60.002	1	1874787205	8/5/2010	10:47:55	1	BlockProc	SessionList	2	1	2	9	NULL	NULL	NULL	NULL	9	2	9	Scenes	NULL	NULL	NULL	Faces	1	2390	0	165695	10	163405	0	NULL	NULL	scene/s_004.bmp	NULL	NULL	NULL	NULL	NULL	NULL	Repeat	SFFSFSSSFSSFSSFFFSFF	NULL	NULL	NULL	TrialProc	Irrelevant	BlockList	1	1	0	163295	10	162805	1	685	163490
TRSEscan	1111	1	60.002	1	1874787205	8/5/2010	10:47:55	1	BlockProc	SessionList	2	1	2	10	NULL	NULL	NULL	NULL	10	2	10	Faces	NULL	NULL	NULL	Faces	1	4390	0	170694	10	166404	3	NULL	NULL	face/f_038.bmp	NULL	NULL	NULL	NULL	NULL	NULL	Novel	SFFSFSSSFSSFSSFFFSFF	NULL	NULL	NULL	TrialProc	Relevant	BlockList	1	1	0	166294	9	165804	1	1126	166930
TRSEscan	1111	1	60.002	1	1874787205	8/5/2010	10:47:55	1	BlockProc	SessionList	2	1	2	11	NULL	NULL	NULL	NULL	11	2	11	Scenes	NULL	NULL	NULL	Faces	1	6390	0	177694	10	171404	1	NULL	NULL	scene/s_004.bmp	NULL	NULL	NULL	NULL	NULL	NULL	Repeat	SFFSFSSSFSSFSSFFFSFF	NULL	NULL	NULL	TrialProc	Irrelevant	BlockList	1	1	0	171294	10	170804	1	510	171314
TRSEscan	1111	1	60.002	1	1874787205	8/5/2010	10:47:55	1	BlockProc	SessionList	2	1	2	12	NULL	NULL	NULL	NULL	12	2	12	Scenes	NULL	NULL	NULL	Faces	1	2390	0	180694	10	178404	0	NULL	NULL	scene/s_020.bmp	NULL	NULL	NULL	NULL	NULL	NULL	Novel	SFFSFSSSFSSFSSFFFSFF	NULL	NULL	NULL	TrialProc	Irrelevant	BlockList	1	1	0	178294	10	177804	1	646	178450
TRSEscan	1111	1	60.002	1	1874787205	8/5/2010	10:47:55	1	BlockProc	SessionList	2	1	2	13	NULL	NULL	NULL	NULL	13	2	13	Faces	NULL	NULL	NULL	Faces	2	4390	0	185694	10	181404	2	NULL	NULL	face/f_038.bmp	NULL	NULL	NULL	NULL	NULL	NULL	Repeat	SFFSFSSSFSSFSSFFFSFF	NULL	NULL	NULL	TrialProc	Relevant	BlockList	1	2	0	181294	10	180804	2	870	181674
TRSEscan	1111	1	60.002	1	1874787205	8/5/2010	10:47:55	1	BlockProc	SessionList	2	1	2	14	NULL	NULL	NULL	NULL	14	2	14	Scenes	NULL	NULL	NULL	Faces	1	2390	0	188694	10	186404	1	NULL	NULL	scene/s_020.bmp	NULL	NULL	NULL	NULL	NULL	NULL	Repeat	SFFSFSSSFSSFSSFFFSFF	NULL	NULL	NULL	TrialProc	Irrelevant	BlockList	1	1	0	186294	10	185804	1	693	186497
TRSEscan	1111	1	60.002	1	1874787205	8/5/2010	10:47:55	1	BlockProc	SessionList	2	1	2	15	NULL	NULL	NULL	NULL	15	2	15	Scenes	NULL	NULL	NULL	Faces	1	6390	0	195694	10	189404	0	NULL	NULL	scene/s_442.bmp	NULL	NULL	NULL	NULL	NULL	NULL	Novel	SFFSFSSSFSSFSSFFFSFF	NULL	NULL	NULL	TrialProc	Irrelevant	BlockList	1	1	0	189294	10	188804	1	629	189433
TRSEscan	1111	1	60.002	1	1874787205	8/5/2010	10:47:55	1	BlockProc	SessionList	2	1	2	16	NULL	NULL	NULL	NULL	16	2	16	Faces	NULL	NULL	NULL	Faces	2	6390	0	202694	10	196404	2	NULL	NULL	face/f_038.bmp	NULL	NULL	NULL	NULL	NULL	NULL	Repeat	SFFSFSSSFSSFSSFFFSFF	NULL	NULL	NULL	TrialProc	Relevant	BlockList	1	2	0	196294	10	195804	2	837	196641
TRSEscan	1111	1	60.002	1	1874787205	8/5/2010	10:47:55	1	BlockProc	SessionList	2	1	2	17	NULL	NULL	NULL	NULL	17	2	17	Faces	NULL	NULL	NULL	Faces	1	2390	0	205694	10	203404	0	NULL	NULL	face/f_012.bmp	NULL	NULL	NULL	NULL	NULL	NULL	Novel	SFFSFSSSFSSFSSFFFSFF	NULL	NULL	NULL	TrialProc	Relevant	BlockList	1	1	0	203294	10	202804	1	925	203729
TRSEscan	1111	1	60.002	1	1874787205	8/5/2010	10:47:55	1	BlockProc	SessionList	2	1	2	18	NULL	NULL	NULL	NULL	18	2	18	Faces	NULL	NULL	NULL	Faces	2	4390	0	210693	10	206403	0	NULL	NULL	face/f_012.bmp	NULL	NULL	NULL	NULL	NULL	NULL	Repeat	SFFSFSSSFSSFSSFFFSFF	NULL	NULL	NULL	TrialProc	Relevant	BlockList	1	2	0	206293	9	205803	2	918	206721
TRSEscan	1111	1	60.002	1	1874787205	8/5/2010	10:47:55	1	BlockProc	SessionList	2	1	2	19	NULL	NULL	NULL	NULL	19	2	19	Scenes	NULL	NULL	NULL	Faces	1	2390	0	213693	10	211403	3	NULL	NULL	scene/s_404.bmp	NULL	NULL	NULL	NULL	NULL	NULL	Novel	SFFSFSSSFSSFSSFFFSFF	NULL	NULL	NULL	TrialProc	Irrelevant	BlockList	1	1	0	211293	10	210803	1	798	211601
TRSEscan	1111	1	60.002	1	1874787205	8/5/2010	10:47:55	1	BlockProc	SessionList	2	1	2	20	NULL	NULL	NULL	NULL	20	2	20	Faces	NULL	NULL	NULL	Faces	1	6390	0	220693	10	214403	1	NULL	NULL	face/f_030.bmp	NULL	NULL	NULL	NULL	NULL	NULL	Novel	SFFSFSSSFSSFSSFFFSFF	NULL	NULL	NULL	TrialProc	Relevant	BlockList	1	1	0	214293	10	213803	1	990	214793
TRSEscan	1111	1	60.002	1	1874787205	8/5/2010	10:47:55	1	BlockProc	SessionList	2	1	2	21	NULL	NULL	NULL	NULL	21	2	21	Faces	NULL	NULL	NULL	Faces	1	4390	0	225693	10	221403	0	NULL	NULL	face/m_116.bmp	NULL	NULL	NULL	NULL	NULL	NULL	Novel	SFFSFSSSFSSFSSFFFSFF	NULL	NULL	NULL	TrialProc	Relevant	BlockList	1	1	0	221293	10	220803	1	1149	221952
TRSEscan	1111	1	60.002	1	1874787205	8/5/2010	10:47:55	1	BlockProc	SessionList	2	1	2	22	NULL	NULL	NULL	NULL	22	2	22		NULL	NULL	NULL	Faces			NULL	NULL	NULL	NULL		240693	238803		NULL	NULL	NULL	NULL	NULL	NULL			NULL	NULL	NULL	FeedbackProc		BlockList	NULL	NULL	NULL	NULL	NULL	NULL	NULL	NULL	NULL
TRSEscan	1111	1	60.002	1	1874787205	8/5/2010	10:47:55	2	BlockProc	SessionList	2	1	3	1	-999999	243760	10	240803	1	3	23		1	2	1527	Scenes			NULL	NULL	NULL	NULL		NULL	NULL		273231	1	246303	0	274225	273235			0	276125	274235	InstrProc		BlockList	NULL	NULL	NULL	NULL	NULL	NULL	NULL	NULL	NULL
TRSEscan	1111	1	60.002	1	1874787205	8/5/2010	10:47:55	2	BlockProc	SessionList	2	1	3	2	NULL	NULL	NULL	NULL	2	3	24	Scenes	NULL	NULL	NULL	Scenes	1	4390	0	281125	10	276835	0	NULL	NULL	scene/s_325.bmp	NULL	NULL	NULL	NULL	NULL	NULL	Novel	SFFSFSSSFSSFSSFFFSFF	NULL	NULL	NULL	TrialProc	Relevant	BlockList	1	1	0	276725	10	276235	1	860	277095
TRSEscan	1111	1	60.002	1	1874787205	8/5/2010	10:47:55	2	BlockProc	SessionList	2	1	3	3	NULL	NULL	NULL	NULL	3	3	25	Faces	NULL	NULL	NULL	Scenes	1	2390	0	284125	10	281835	1	NULL	NULL	face/f_114.bmp	NULL	NULL	NULL	NULL	NULL	NULL	Novel	SFFSFSSSFSSFSSFFFSFF	NULL	NULL	NULL	TrialProc	Irrelevant	BlockList	1	1	0	281725	10	281235	1	956	282191
TRSEscan	1111	1	60.002	1	1874787205	8/5/2010	10:47:55	2	BlockProc	SessionList	2	1	3	4	NULL	NULL	NULL	NULL	4	3	26	Faces	NULL	NULL	NULL	Scenes	1	2390	0	287125	10	284835	0	NULL	NULL	face/f_036.bmp	NULL	NULL	NULL	NULL	NULL	NULL	Novel	SFFSFSSSFSSFSSFFFSFF	NULL	NULL	NULL	TrialProc	Irrelevant	BlockList	1	1	0	284725	10	284235	1	772	285007
TRSEscan	1111	1	60.002	1	1874787205	8/5/2010	10:47:55	2	BlockProc	SessionList	2	1	3	5	NULL	NULL	NULL	NULL	5	3	27	Scenes	NULL	NULL	NULL	Scenes	1	4390	0	292125	10	287835	2	NULL	NULL	scene/s_189.bmp	NULL	NULL	NULL	NULL	NULL	NULL	Novel	SFFSFSSSFSSFSSFFFSFF	NULL	NULL	NULL	TrialProc	Relevant	BlockList	1	1	0	287725	10	287235	1	988	288223
TRSEscan	1111	1	60.002	1	1874787205	8/5/2010	10:47:55	2	BlockProc	SessionList	2	1	3	6	NULL	NULL	NULL	NULL	6	3	28	Faces	NULL	NULL	NULL	Scenes	1	6390	0	299125	10	292835	1	NULL	NULL	face/f_036.bmp	NULL	NULL	NULL	NULL	NULL	NULL	Repeat	SFFSFSSSFSSFSSFFFSFF	NULL	NULL	NULL	TrialProc	Irrelevant	BlockList	1	1	0	292725	10	292235	1	668	292903
TRSEscan	1111	1	60.002	1	1874787205	8/5/2010	10:47:55	2	BlockProc	SessionList	2	1	3	7	NULL	NULL	NULL	NULL	7	3	29	Scenes	NULL	NULL	NULL	Scenes	2	6390	0	306124	10	299834	1	NULL	NULL	scene/s_189.bmp	NULL	NULL	NULL	NULL	NULL	NULL	Repeat	SFFSFSSSFSSFSSFFFSFF	NULL	NULL	NULL	TrialProc	Relevant	BlockList	0	2	0	299724	9	299234	1	1085	300319
TRSEscan	1111	1	60.002	1	1874787205	8/5/2010	10:47:55	2	BlockProc	SessionList	2	1	3	8	NULL	NULL	NULL	NULL	8	3	30	Scenes	NULL	NULL	NULL	Scenes	1	4390	0	311124	10	306834	0	NULL	NULL	scene/s_409.bmp	NULL	NULL	NULL	NULL	NULL	NULL	Novel	SFFSFSSSFSSFSSFFFSFF	NULL	NULL	NULL	TrialProc	Relevant	BlockList	1	1	0	306724	10	306234	1	756	306990
TRSEscan	1111	1	60.002	1	1874787205	8/5/2010	10:47:55	2	BlockProc	SessionList	2	1	3	9	NULL	NULL	NULL	NULL	9	3	31	Scenes	NULL	NULL	NULL	Scenes	2	2390	0	314124	10	311834	0	NULL	NULL	scene/s_409.bmp	NULL	NULL	NULL	NULL	NULL	NULL	Repeat	SFFSFSSSFSSFSSFFFSFF	NULL	NULL	NULL	TrialProc	Relevant	BlockList	1	2	0	311724	10	311234	2	1084	312318
TRSEscan	1111	1	60.002	1	1874787205	8/5/2010	10:47:55	2	BlockProc	SessionList	2	1	3	10	NULL	NULL	NULL	NULL	10	3	32	Faces	NULL	NULL	NULL	Scenes	1	4390	0	319124	10	314834	3	NULL	NULL	face/f_112.bmp	NULL	NULL	NULL	NULL	NULL	NULL	Novel	SFFSFSSSFSSFSSFFFSFF	NULL	NULL	NULL	TrialProc	Irrelevant	BlockList	1	1	0	314724	10	314234	1	820	315054
TRSEscan	1111	1	60.002	1	1874787205	8/5/2010	10:47:55	2	BlockProc	SessionList	2	1	3	11	NULL	NULL	NULL	NULL	11	3	33	Scenes	NULL	NULL	NULL	Scenes	2	6390	0	326124	10	319834	1	NULL	NULL	scene/s_409.bmp	NULL	NULL	NULL	NULL	NULL	NULL	Repeat	SFFSFSSSFSSFSSFFFSFF	NULL	NULL	NULL	TrialProc	Relevant	BlockList	1	2	0	319724	10	319234	2	716	319950
TRSEscan	1111	1	60.002	1	1874787205	8/5/2010	10:47:55	2	BlockProc	SessionList	2	1	3	12	NULL	NULL	NULL	NULL	12	3	34	Scenes	NULL	NULL	NULL	Scenes	1	2390	0	329124	10	326834	0	NULL	NULL	scene/s_371.bmp	NULL	NULL	NULL	NULL	NULL	NULL	Novel	SFFSFSSSFSSFSSFFFSFF	NULL	NULL	NULL	TrialProc	Relevant	BlockList	1	1	0	326724	10	326234	1	772	327006
TRSEscan	1111	1	60.002	1	1874787205	8/5/2010	10:47:55	2	BlockProc	SessionList	2	1	3	13	NULL	NULL	NULL	NULL	13	3	35	Faces	NULL	NULL	NULL	Scenes	1	4390	0	334124	10	329834	2	NULL	NULL	face/f_112.bmp	NULL	NULL	NULL	NULL	NULL	NULL	Repeat	SFFSFSSSFSSFSSFFFSFF	NULL	NULL	NULL	TrialProc	Irrelevant	BlockList	1	1	0	329724	10	329234	1	700	329934
TRSEscan	1111	1	60.002	1	1874787205	8/5/2010	10:47:55	2	BlockProc	SessionList	2	1	3	14	NULL	NULL	NULL	NULL	14	3	36	Scenes	NULL	NULL	NULL	Scenes	2	2390	0	337124	10	334834	1	NULL	NULL	scene/s_371.bmp	NULL	NULL	NULL	NULL	NULL	NULL	Repeat	SFFSFSSSFSSFSSFFFSFF	NULL	NULL	NULL	TrialProc	Relevant	BlockList	1	2	0	334724	10	334234	2	1156	335390
TRSEscan	1111	1	60.002	1	1874787205	8/5/2010	10:47:55	2	BlockProc	SessionList	2	1	3	15	NULL	NULL	NULL	NULL	15	3	37	Scenes	NULL	NULL	NULL	Scenes	1	6390	0	344124	10	337834	0	NULL	NULL	scene/s_136.bmp	NULL	NULL	NULL	NULL	NULL	NULL	Novel	SFFSFSSSFSSFSSFFFSFF	NULL	NULL	NULL	TrialProc	Relevant	BlockList	1	1	0	337724	10	337234	1	796	338030
TRSEscan	1111	1	60.002	1	1874787205	8/5/2010	10:47:55	2	BlockProc	SessionList	2	1	3	16	NULL	NULL	NULL	NULL	16	3	38	Faces	NULL	NULL	NULL	Scenes	1	6390	0	351123	10	344833	2	NULL	NULL	face/f_112.bmp	NULL	NULL	NULL	NULL	NULL	NULL	Repeat	SFFSFSSSFSSFSSFFFSFF	NULL	NULL	NULL	TrialProc	Irrelevant	BlockList	1	1	0	344723	9	344233	1	652	344885
TRSEscan	1111	1	60.002	1	1874787205	8/5/2010	10:47:55	2	BlockProc	SessionList	2	1	3	17	NULL	NULL	NULL	NULL	17	3	39	Faces	NULL	NULL	NULL	Scenes	1	2390	0	354123	10	351833	0	NULL	NULL	face/m_135.bmp	NULL	NULL	NULL	NULL	NULL	NULL	Novel	SFFSFSSSFSSFSSFFFSFF	NULL	NULL	NULL	TrialProc	Irrelevant	BlockList	1	1	0	351723	10	351233	1	620	351853
TRSEscan	1111	1	60.002	1	1874787205	8/5/2010	10:47:55	2	BlockProc	SessionList	2	1	3	18	NULL	NULL	NULL	NULL	18	3	40	Faces	NULL	NULL	NULL	Scenes	1	4390	0	359123	10	354833	0	NULL	NULL	face/m_135.bmp	NULL	NULL	NULL	NULL	NULL	NULL	Repeat	SFFSFSSSFSSFSSFFFSFF	NULL	NULL	NULL	TrialProc	Irrelevant	BlockList	1	1	0	354723	10	354233	1	636	354869
TRSEscan	1111	1	60.002	1	1874787205	8/5/2010	10:47:55	2	BlockProc	SessionList	2	1	3	19	NULL	NULL	NULL	NULL	19	3	41	Scenes	NULL	NULL	NULL	Scenes	1	2390	0	362123	10	359833	3	NULL	NULL	scene/s_378.bmp	NULL	NULL	NULL	NULL	NULL	NULL	Novel	SFFSFSSSFSSFSSFFFSFF	NULL	NULL	NULL	TrialProc	Relevant	BlockList	1	1	0	359723	10	359233	1	916	360149
TRSEscan	1111	1	60.002	1	1874787205	8/5/2010	10:47:55	2	BlockProc	SessionList	2	1	3	20	NULL	NULL	NULL	NULL	20	3	42	Faces	NULL	NULL	NULL	Scenes	1	6390	0	369123	10	362833	1	NULL	NULL	face/m_053.bmp	NULL	NULL	NULL	NULL	NULL	NULL	Novel	SFFSFSSSFSSFSSFFFSFF	NULL	NULL	NULL	TrialProc	Irrelevant	BlockList	1	1	0	362723	10	362233	1	1084	363317
TRSEscan	1111	1	60.002	1	1874787205	8/5/2010	10:47:55	2	BlockProc	SessionList	2	1	3	21	NULL	NULL	NULL	NULL	21	3	43	Faces	NULL	NULL	NULL	Scenes	1	4390	0	374123	10	369833	0	NULL	NULL	face/f_145.bmp	NULL	NULL	NULL	NULL	NULL	NULL	Novel	SFFSFSSSFSSFSSFFFSFF	NULL	NULL	NULL	TrialProc	Irrelevant	BlockList	1	1	0	369723	10	369233	1	612	369845
TRSEscan	1111	1	60.002	1	1874787205	8/5/2010	10:47:55	2	BlockProc	SessionList	2	1	3	22	NULL	NULL	NULL	NULL	22	3	44		NULL	NULL	NULL	Scenes			NULL	NULL	NULL	NULL		389122	387232		NULL	NULL	NULL	NULL	NULL	NULL			NULL	NULL	NULL	FeedbackProc		BlockList	NULL	NULL	NULL	NULL	NULL	NULL	NULL	NULL	NULL
TRSEscan	1111	1	60.002	1	1874787205	8/5/2010	10:47:55	3	BlockProc	SessionList	2	1	4	1	-999999	397572	10	389232	1	4	45		1	2	1798	Categorize			NULL	NULL	NULL	NULL		NULL	NULL		408444	1	400383	0	409438	408448			0	411338	409448	InstrProc		BlockList	NULL	NULL	NULL	NULL	NULL	NULL	NULL	NULL	NULL
TRSEscan	1111	1	60.002	1	1874787205	8/5/2010	10:47:55	3	BlockProc	SessionList	2	1	4	2	NULL	NULL	NULL	NULL	2	4	46	Scenes	NULL	NULL	NULL	Categorize	2	4390	0	416338	10	412048	0	NULL	NULL	scene/s_301.bmp	NULL	NULL	NULL	NULL	NULL	NULL	Novel	SFFSFSSSFSSFSSFFFSFF	NULL	NULL	NULL	TrialProc	Irrelevant	BlockList	1	2	0	411938	10	411448	2	540	411988
TRSEscan	1111	1	60.002	1	1874787205	8/5/2010	10:47:55	3	BlockProc	SessionList	2	1	4	3	NULL	NULL	NULL	NULL	3	4	47	Faces	NULL	NULL	NULL	Categorize	1	2390	0	419338	10	417048	1	NULL	NULL	face/m_055.bmp	NULL	NULL	NULL	NULL	NULL	NULL	Novel	SFFSFSSSFSSFSSFFFSFF	NULL	NULL	NULL	TrialProc	Irrelevant	BlockList	1	1	0	416938	10	416448	1	636	417084
TRSEscan	1111	1	60.002	1	1874787205	8/5/2010	10:47:55	3	BlockProc	SessionList	2	1	4	4	NULL	NULL	NULL	NULL	4	4	48	Faces	NULL	NULL	NULL	Categorize	1	2390	0	422338	10	420048	0	NULL	NULL	face/m_129.bmp	NULL	NULL	NULL	NULL	NULL	NULL	Novel	SFFSFSSSFSSFSSFFFSFF	NULL	NULL	NULL	TrialProc	Irrelevant	BlockList	1	1	0	419938	10	419448	1	564	420012
TRSEscan	1111	1	60.002	1	1874787205	8/5/2010	10:47:55	3	BlockProc	SessionList	2	1	4	5	NULL	NULL	NULL	NULL	5	4	49	Scenes	NULL	NULL	NULL	Categorize	2	4390	0	427338	10	423048	2	NULL	NULL	scene/s_141.bmp	NULL	NULL	NULL	NULL	NULL	NULL	Novel	SFFSFSSSFSSFSSFFFSFF	NULL	NULL	NULL	TrialProc	Irrelevant	BlockList	1	2	0	422938	10	422448	2	604	423052
TRSEscan	1111	1	60.002	1	1874787205	8/5/2010	10:47:55	3	BlockProc	SessionList	2	1	4	6	NULL	NULL	NULL	NULL	6	4	50	Faces	NULL	NULL	NULL	Categorize	1	6390	0	434338	10	428048	1	NULL	NULL	face/m_129.bmp	NULL	NULL	NULL	NULL	NULL	NULL	Repeat	SFFSFSSSFSSFSSFFFSFF	NULL	NULL	NULL	TrialProc	Irrelevant	BlockList	1	1	0	427938	10	427448	1	667	428115
TRSEscan	1111	1	60.002	1	1874787205	8/5/2010	10:47:55	3	BlockProc	SessionList	2	1	4	7	NULL	NULL	NULL	NULL	7	4	51	Scenes	NULL	NULL	NULL	Categorize	2	6390	0	441338	10	435048	1	NULL	NULL	scene/s_141.bmp	NULL	NULL	NULL	NULL	NULL	NULL	Repeat	SFFSFSSSFSSFSSFFFSFF	NULL	NULL	NULL	TrialProc	Irrelevant	BlockList	1	2	0	434938	10	434448	2	619	435067
TRSEscan	1111	1	60.002	1	1874787205	8/5/2010	10:47:55	3	BlockProc	SessionList	2	1	4	8	NULL	NULL	NULL	NULL	8	4	52	Scenes	NULL	NULL	NULL	Categorize	2	4390	0	446338	10	442048	0	NULL	NULL	scene/s_264.bmp	NULL	NULL	NULL	NULL	NULL	NULL	Novel	SFFSFSSSFSSFSSFFFSFF	NULL	NULL	NULL	TrialProc	Irrelevant	BlockList	1	2	0	441938	10	441448	2	667	442115
TRSEscan	1111	1	60.002	1	1874787205	8/5/2010	10:47:55	3	BlockProc	SessionList	2	1	4	9	NULL	NULL	NULL	NULL	9	4	53	Scenes	NULL	NULL	NULL	Categorize	2	2390	0	449337	10	447047	0	NULL	NULL	scene/s_264.bmp	NULL	NULL	NULL	NULL	NULL	NULL	Repeat	SFFSFSSSFSSFSSFFFSFF	NULL	NULL	NULL	TrialProc	Irrelevant	BlockList	1	2	0	446937	9	446447	2	804	447251
TRSEscan	1111	1	60.002	1	1874787205	8/5/2010	10:47:55	3	BlockProc	SessionList	2	1	4	10	NULL	NULL	NULL	NULL	10	4	54	Faces	NULL	NULL	NULL	Categorize	1	4390	0	454337	10	450047	3	NULL	NULL	face/f_135.bmp	NULL	NULL	NULL	NULL	NULL	NULL	Novel	SFFSFSSSFSSFSSFFFSFF	NULL	NULL	NULL	TrialProc	Irrelevant	BlockList	1	1	0	449937	10	449447	1	524	449971
TRSEscan	1111	1	60.002	1	1874787205	8/5/2010	10:47:55	3	BlockProc	SessionList	2	1	4	11	NULL	NULL	NULL	NULL	11	4	55	Scenes	NULL	NULL	NULL	Categorize	2	6390	0	461337	10	455047	1	NULL	NULL	scene/s_264.bmp	NULL	NULL	NULL	NULL	NULL	NULL	Repeat	SFFSFSSSFSSFSSFFFSFF	NULL	NULL	NULL	TrialProc	Irrelevant	BlockList	1	2	0	454937	10	454447	2	836	455283
TRSEscan	1111	1	60.002	1	1874787205	8/5/2010	10:47:55	3	BlockProc	SessionList	2	1	4	12	NULL	NULL	NULL	NULL	12	4	56	Scenes	NULL	NULL	NULL	Categorize	2	2390	0	464337	10	462047	0	NULL	NULL	scene/s_063.bmp	NULL	NULL	NULL	NULL	NULL	NULL	Novel	SFFSFSSSFSSFSSFFFSFF	NULL	NULL	NULL	TrialProc	Irrelevant	BlockList	1	2	0	461937	10	461447	2	844	462291
TRSEscan	1111	1	60.002	1	1874787205	8/5/2010	10:47:55	3	BlockProc	SessionList	2	1	4	13	NULL	NULL	NULL	NULL	13	4	57	Faces	NULL	NULL	NULL	Categorize	1	4390	0	469337	10	465047	2	NULL	NULL	face/f_135.bmp	NULL	NULL	NULL	NULL	NULL	NULL	Repeat	SFFSFSSSFSSFSSFFFSFF	NULL	NULL	NULL	TrialProc	Irrelevant	BlockList	1	1	0	464937	10	464447	1	627	465074
TRSEscan	1111	1	60.002	1	1874787205	8/5/2010	10:47:55	3	BlockProc	SessionList	2	1	4	14	NULL	NULL	NULL	NULL	14	4	58	Scenes	NULL	NULL	NULL	Categorize	2	2390	0	472337	10	470047	1	NULL	NULL	scene/s_063.bmp	NULL	NULL	NULL	NULL	NULL	NULL	Repeat	SFFSFSSSFSSFSSFFFSFF	NULL	NULL	NULL	TrialProc	Irrelevant	BlockList	1	2	0	469937	10	469447	2	691	470138
TRSEscan	1111	1	60.002	1	1874787205	8/5/2010	10:47:55	3	BlockProc	SessionList	2	1	4	15	NULL	NULL	NULL	NULL	15	4	59	Scenes	NULL	NULL	NULL	Categorize	2	6390	0	479337	10	473047	0	NULL	NULL	scene/s_439.bmp	NULL	NULL	NULL	NULL	NULL	NULL	Novel	SFFSFSSSFSSFSSFFFSFF	NULL	NULL	NULL	TrialProc	Irrelevant	BlockList	1	2	0	472937	10	472447	2	739	473186
TRSEscan	1111	1	60.002	1	1874787205	8/5/2010	10:47:55	3	BlockProc	SessionList	2	1	4	16	NULL	NULL	NULL	NULL	16	4	60	Faces	NULL	NULL	NULL	Categorize	1	6390	0	486337	10	480047	2	NULL	NULL	face/f_135.bmp	NULL	NULL	NULL	NULL	NULL	NULL	Repeat	SFFSFSSSFSSFSSFFFSFF	NULL	NULL	NULL	TrialProc	Irrelevant	BlockList	1	1	0	479937	10	479447	1	667	480114
TRSEscan	1111	1	60.002	1	1874787205	8/5/2010	10:47:55	3	BlockProc	SessionList	2	1	4	17	NULL	NULL	NULL	NULL	17	4	61	Faces	NULL	NULL	NULL	Categorize	1	2390	0	489336	10	487046	0	NULL	NULL	face/m_033.bmp	NULL	NULL	NULL	NULL	NULL	NULL	Novel	SFFSFSSSFSSFSSFFFSFF	NULL	NULL	NULL	TrialProc	Irrelevant	BlockList	1	1	0	486936	9	486446	1	836	487282
TRSEscan	1111	1	60.002	1	1874787205	8/5/2010	10:47:55	3	BlockProc	SessionList	2	1	4	18	NULL	NULL	NULL	NULL	18	4	62	Faces	NULL	NULL	NULL	Categorize	1	4390	0	494336	10	490046	0	NULL	NULL	face/m_033.bmp	NULL	NULL	NULL	NULL	NULL	NULL	Repeat	SFFSFSSSFSSFSSFFFSFF	NULL	NULL	NULL	TrialProc	Irrelevant	BlockList	1	1	0	489936	10	489446	1	692	490138
TRSEscan	1111	1	60.002	1	1874787205	8/5/2010	10:47:55	3	BlockProc	SessionList	2	1	4	19	NULL	NULL	NULL	NULL	19	4	63	Scenes	NULL	NULL	NULL	Categorize	2	2390	0	497336	10	495046	3	NULL	NULL	scene/s_172.bmp	NULL	NULL	NULL	NULL	NULL	NULL	Novel	SFFSFSSSFSSFSSFFFSFF	NULL	NULL	NULL	TrialProc	Irrelevant	BlockList	1	2	0	494936	10	494446	2	620	495066
TRSEscan	1111	1	60.002	1	1874787205	8/5/2010	10:47:55	3	BlockProc	SessionList	2	1	4	20	NULL	NULL	NULL	NULL	20	4	64	Faces	NULL	NULL	NULL	Categorize	1	6390	0	504336	10	498046	1	NULL	NULL	face/f_081.bmp	NULL	NULL	NULL	NULL	NULL	NULL	Novel	SFFSFSSSFSSFSSFFFSFF	NULL	NULL	NULL	TrialProc	Irrelevant	BlockList	1	1	0	497936	10	497446	1	556	498002
TRSEscan	1111	1	60.002	1	1874787205	8/5/2010	10:47:55	3	BlockProc	SessionList	2	1	4	21	NULL	NULL	NULL	NULL	21	4	65	Faces	NULL	NULL	NULL	Categorize	1	4390	0	509336	10	505046	0	NULL	NULL	face/m_035.bmp	NULL	NULL	NULL	NULL	NULL	NULL	Novel	SFFSFSSSFSSFSSFFFSFF	NULL	NULL	NULL	TrialProc	Irrelevant	BlockList	1	1	0	504936	10	504446	1	659	505105
TRSEscan	1111	1	60.002	1	1874787205	8/5/2010	10:47:55	3	BlockProc	SessionList	2	1	4	22	NULL	NULL	NULL	NULL	22	4	66		NULL	NULL	NULL	Categorize			NULL	NULL	NULL	NULL		524336	522446		NULL	NULL	NULL	NULL	NULL	NULL			NULL	NULL	NULL	FeedbackProc		BlockList	NULL	NULL	NULL	NULL	NULL	NULL	NULL	NULL	NULL
TRSEscan	1111	1	60.002	1	1874787205	8/5/2010	10:47:55	4	BlockProc	SessionList	2	1	5	1	-999999	529257	10	524446	1	5	67		1	2	2035	Both			NULL	NULL	NULL	NULL		NULL	NULL		542609	1	532313	0	543602	542612			0	545502	543612	InstrProc		BlockList	NULL	NULL	NULL	NULL	NULL	NULL	NULL	NULL	NULL
TRSEscan	1111	1	60.002	1	1874787205	8/5/2010	10:47:55	4	BlockProc	SessionList	2	1	5	2	NULL	NULL	NULL	NULL	2	5	68	Scenes	NULL	NULL	NULL	Both	1	4390	0	550502	10	546212	0	NULL	NULL	scene/s_165.bmp	NULL	NULL	NULL	NULL	NULL	NULL	Novel	SFFSFSSSFSSFSSFFFSFF	NULL	NULL	NULL	TrialProc	Relevant	BlockList	1	1	0	546102	10	545612	1	1181	546793
TRSEscan	1111	1	60.002	1	1874787205	8/5/2010	10:47:55	4	BlockProc	SessionList	2	1	5	3	NULL	NULL	NULL	NULL	3	5	69	Faces	NULL	NULL	NULL	Both	1	2390	0	553502	10	551212	1	NULL	NULL	face/f_111.bmp	NULL	NULL	NULL	NULL	NULL	NULL	Novel	SFFSFSSSFSSFSSFFFSFF	NULL	NULL	NULL	TrialProc	Relevant	BlockList	1	1	0	551102	10	550612	1	884	551496
TRSEscan	1111	1	60.002	1	1874787205	8/5/2010	10:47:55	4	BlockProc	SessionList	2	1	5	4	NULL	NULL	NULL	NULL	4	5	70	Faces	NULL	NULL	NULL	Both	1	2390	0	556501	10	554211	0	NULL	NULL	face/f_139.bmp	NULL	NULL	NULL	NULL	NULL	NULL	Novel	SFFSFSSSFSSFSSFFFSFF	NULL	NULL	NULL	TrialProc	Relevant	BlockList	1	1	0	554101	9	553611	1	1389	555000
TRSEscan	1111	1	60.002	1	1874787205	8/5/2010	10:47:55	4	BlockProc	SessionList	2	1	5	5	NULL	NULL	NULL	NULL	5	5	71	Scenes	NULL	NULL	NULL	Both	1	4390	0	561501	10	557211	2	NULL	NULL	scene/s_385.bmp	NULL	NULL	NULL	NULL	NULL	NULL	Novel	SFFSFSSSFSSFSSFFFSFF	NULL	NULL	NULL	TrialProc	Relevant	BlockList	1	1	0	557101	10	556611	1	1157	557768
TRSEscan	1111	1	60.002	1	1874787205	8/5/2010	10:47:55	4	BlockProc	SessionList	2	1	5	6	NULL	NULL	NULL	NULL	6	5	72	Faces	NULL	NULL	NULL	Both	2	6390	0	568501	10	562211	1	NULL	NULL	face/f_139.bmp	NULL	NULL	NULL	NULL	NULL	NULL	Repeat	SFFSFSSSFSSFSSFFFSFF	NULL	NULL	NULL	TrialProc	Relevant	BlockList	1	2	0	562101	10	561611	2	1221	562832
TRSEscan	1111	1	60.002	1	1874787205	8/5/2010	10:47:55	4	BlockProc	SessionList	2	1	5	7	NULL	NULL	NULL	NULL	7	5	73	Scenes	NULL	NULL	NULL	Both	2	6390	0	575501	10	569211	1	NULL	NULL	scene/s_385.bmp	NULL	NULL	NULL	NULL	NULL	NULL	Repeat	SFFSFSSSFSSFSSFFFSFF	NULL	NULL	NULL	TrialProc	Relevant	BlockList	1	2	0	569101	10	568611	2	973	569584
TRSEscan	1111	1	60.002	1	1874787205	8/5/2010	10:47:55	4	BlockProc	SessionList	2	1	5	8	NULL	NULL	NULL	NULL	8	5	74	Scenes	NULL	NULL	NULL	Both	1	4390	0	580501	10	576211	0	NULL	NULL	scene/s_050.bmp	NULL	NULL	NULL	NULL	NULL	NULL	Novel	SFFSFSSSFSSFSSFFFSFF	NULL	NULL	NULL	TrialProc	Relevant	BlockList	1	1	0	576101	10	575611	1	869	576480
TRSEscan	1111	1	60.002	1	1874787205	8/5/2010	10:47:55	4	BlockProc	SessionList	2	1	5	9	NULL	NULL	NULL	NULL	9	5	75	Scenes	NULL	NULL	NULL	Both	2	2390	0	583501	10	581211	0	NULL	NULL	scene/s_050.bmp	NULL	NULL	NULL	NULL	NULL	NULL	Repeat	SFFSFSSSFSSFSSFFFSFF	NULL	NULL	NULL	TrialProc	Relevant	BlockList	1	2	0	581101	10	580611	2	989	581600
TRSEscan	1111	1	60.002	1	1874787205	8/5/2010	10:47:55	4	BlockProc	SessionList	2	1	5	10	NULL	NULL	NULL	NULL	10	5	76	Faces	NULL	NULL	NULL	Both	1	4390	0	588501	10	584211	3	NULL	NULL	face/f_044.bmp	NULL	NULL	NULL	NULL	NULL	NULL	Novel	SFFSFSSSFSSFSSFFFSFF	NULL	NULL	NULL	TrialProc	Relevant	BlockList	1	1	0	584101	10	583611	1	1052	584663
TRSEscan	1111	1	60.002	1	1874787205	8/5/2010	10:47:55	4	BlockProc	SessionList	2	1	5	11	NULL	NULL	NULL	NULL	11	5	77	Scenes	NULL	NULL	NULL	Both	2	6390	0	595501	10	589211	1	NULL	NULL	scene/s_050.bmp	NULL	NULL	NULL	NULL	NULL	NULL	Repeat	SFFSFSSSFSSFSSFFFSFF	NULL	NULL	NULL	TrialProc	Relevant	BlockList	0	2	0	589101	10	588611	1	1948	590559
TRSEscan	1111	1	60.002	1	1874787205	8/5/2010	10:47:55	4	BlockProc	SessionList	2	1	5	12	NULL	NULL	NULL	NULL	12	5	78	Scenes	NULL	NULL	NULL	Both	1	2390	0	598500	10	596210	0	NULL	NULL	scene/s_273.bmp	NULL	NULL	NULL	NULL	NULL	NULL	Novel	SFFSFSSSFSSFSSFFFSFF	NULL	NULL	NULL	TrialProc	Relevant	BlockList	1	1	0	596100	9	595610	1	917	596527
TRSEscan	1111	1	60.002	1	1874787205	8/5/2010	10:47:55	4	BlockProc	SessionList	2	1	5	13	NULL	NULL	NULL	NULL	13	5	79	Faces	NULL	NULL	NULL	Both	2	4390	0	603500	10	599210	2	NULL	NULL	face/f_044.bmp	NULL	NULL	NULL	NULL	NULL	NULL	Repeat	SFFSFSSSFSSFSSFFFSFF	NULL	NULL	NULL	TrialProc	Relevant	BlockList	1	2	0	599100	10	598610	2	1109	599719
TRSEscan	1111	1	60.002	1	1874787205	8/5/2010	10:47:55	4	BlockProc	SessionList	2	1	5	14	NULL	NULL	NULL	NULL	14	5	80	Scenes	NULL	NULL	NULL	Both	2	2390	0	606500	10	604210	1	NULL	NULL	scene/s_273.bmp	NULL	NULL	NULL	NULL	NULL	NULL	Repeat	SFFSFSSSFSSFSSFFFSFF	NULL	NULL	NULL	TrialProc	Relevant	BlockList	1	2	0	604100	10	603610	2	1173	604783
TRSEscan	1111	1	60.002	1	1874787205	8/5/2010	10:47:55	4	BlockProc	SessionList	2	1	5	15	NULL	NULL	NULL	NULL	15	5	81	Scenes	NULL	NULL	NULL	Both	1	6390	0	613500	10	607210	0	NULL	NULL	scene/s_176.bmp	NULL	NULL	NULL	NULL	NULL	NULL	Novel	SFFSFSSSFSSFSSFFFSFF	NULL	NULL	NULL	TrialProc	Relevant	BlockList	1	1	0	607100	10	606610	1	797	607407
TRSEscan	1111	1	60.002	1	1874787205	8/5/2010	10:47:55	4	BlockProc	SessionList	2	1	5	16	NULL	NULL	NULL	NULL	16	5	82	Faces	NULL	NULL	NULL	Both	2	6390	0	620500	10	614210	2	NULL	NULL	face/f_044.bmp	NULL	NULL	NULL	NULL	NULL	NULL	Repeat	SFFSFSSSFSSFSSFFFSFF	NULL	NULL	NULL	TrialProc	Relevant	BlockList	1	2	0	614100	10	613610	2	1389	614999
TRSEscan	1111	1	60.002	1	1874787205	8/5/2010	10:47:55	4	BlockProc	SessionList	2	1	5	17	NULL	NULL	NULL	NULL	17	5	83	Faces	NULL	NULL	NULL	Both	1	2390	0	623500	10	621210	0	NULL	NULL	face/m_083.bmp	NULL	NULL	NULL	NULL	NULL	NULL	Novel	SFFSFSSSFSSFSSFFFSFF	NULL	NULL	NULL	TrialProc	Relevant	BlockList	1	1	0	621100	10	620610	1	1092	621702
TRSEscan	1111	1	60.002	1	1874787205	8/5/2010	10:47:55	4	BlockProc	SessionList	2	1	5	18	NULL	NULL	NULL	NULL	18	5	84	Faces	NULL	NULL	NULL	Both	2	4390	0	628500	10	624210	0	NULL	NULL	face/m_083.bmp	NULL	NULL	NULL	NULL	NULL	NULL	Repeat	SFFSFSSSFSSFSSFFFSFF	NULL	NULL	NULL	TrialProc	Relevant	BlockList	1	2	0	624100	10	623610	2	844	624454
TRSEscan	1111	1	60.002	1	1874787205	8/5/2010	10:47:55	4	BlockProc	SessionList	2	1	5	19	NULL	NULL	NULL	NULL	19	5	85	Scenes	NULL	NULL	NULL	Both	1	2390	0	631500	10	629210	3	NULL	NULL	scene/s_355.bmp	NULL	NULL	NULL	NULL	NULL	NULL	Novel	SFFSFSSSFSSFSSFFFSFF	NULL	NULL	NULL	TrialProc	Relevant	BlockList	1	1	0	629100	10	628610	1	964	629574
TRSEscan	1111	1	60.002	1	1874787205	8/5/2010	10:47:55	4	BlockProc	SessionList	2	1	5	20	NULL	NULL	NULL	NULL	20	5	86	Faces	NULL	NULL	NULL	Both	1	6390	0	638500	10	632210	1	NULL	NULL	face/f_142.bmp	NULL	NULL	NULL	NULL	NULL	NULL	Novel	SFFSFSSSFSSFSSFFFSFF	NULL	NULL	NULL	TrialProc	Relevant	BlockList	1	1	0	632100	10	631610	1	1084	632694
TRSEscan	1111	1	60.002	1	1874787205	8/5/2010	10:47:55	4	BlockProc	SessionList	2	1	5	21	NULL	NULL	NULL	NULL	21	5	87	Faces	NULL	NULL	NULL	Both	1	4390	0	643499	10	639209	0	NULL	NULL	face/m_119.bmp	NULL	NULL	NULL	NULL	NULL	NULL	Novel	SFFSFSSSFSSFSSFFFSFF	NULL	NULL	NULL	TrialProc	Relevant	BlockList	1	1	0	639099	9	638609	1	917	639526
TRSEscan	1111	1	60.002	1	1874787205	8/5/2010	10:47:55	4	BlockProc	SessionList	2	1	5	22	NULL	NULL	NULL	NULL	22	5	88		NULL	NULL	NULL	Both			NULL	NULL	NULL	NULL		658499	656609		NULL	NULL	NULL	NULL	NULL	NULL			NULL	NULL	NULL	FeedbackProc		BlockList	NULL	NULL	NULL	NULL	NULL	NULL	NULL	NULL	NULL
TRSEscan	1111	2	60.002	1	1255214901	8/5/2010	10:59:22	1	BlockProc	SessionList	2	2	1	1	-999999	77085	1	70199	1	2	1		1	2	1435	Scenes			NULL	NULL	NULL	NULL		NULL	NULL		87317	1	79549	0	88321	87331			0	90221	88331	InstrProc		BlockList	NULL	NULL	NULL	NULL	NULL	NULL	NULL	NULL	NULL
TRSEscan	1111	2	60.002	1	1255214901	8/5/2010	10:59:22	1	BlockProc	SessionList	2	2	1	2	NULL	NULL	NULL	NULL	2	2	2	Faces	NULL	NULL	NULL	Scenes	1	2390	0	93221	10	90931	0	NULL	NULL	face/m_102.bmp	NULL	NULL	NULL	NULL	NULL	NULL	Novel	FFSFFFSSFSSFSSSFSFFS	NULL	NULL	NULL	TrialProc	Irrelevant	BlockList	1	1	0	90821	10	90331	1	1266	91597
TRSEscan	1111	2	60.002	1	1255214901	8/5/2010	10:59:22	1	BlockProc	SessionList	2	2	1	3	NULL	NULL	NULL	NULL	3	2	3	Faces	NULL	NULL	NULL	Scenes	1	4390	0	98221	10	93931	0	NULL	NULL	face/f_085.bmp	NULL	NULL	NULL	NULL	NULL	NULL	Novel	FFSFFFSSFSSFSSSFSFFS	NULL	NULL	NULL	TrialProc	Irrelevant	BlockList	1	1	0	93821	10	93331	1	706	94037
TRSEscan	1111	2	60.002	1	1255214901	8/5/2010	10:59:22	1	BlockProc	SessionList	2	2	1	4	NULL	NULL	NULL	NULL	4	2	4	Scenes	NULL	NULL	NULL	Scenes	1	6390	0	105221	10	98931	2	NULL	NULL	scene/s_185.bmp	NULL	NULL	NULL	NULL	NULL	NULL	Novel	FFSFFFSSFSSFSSSFSFFS	NULL	NULL	NULL	TrialProc	Relevant	BlockList	1	1	0	98821	10	98331	1	970	99301
TRSEscan	1111	2	60.002	1	1255214901	8/5/2010	10:59:22	1	BlockProc	SessionList	2	2	1	5	NULL	NULL	NULL	NULL	5	2	5	Faces	NULL	NULL	NULL	Scenes	1	4390	0	110221	10	105931	1	NULL	NULL	face/f_085.bmp	NULL	NULL	NULL	NULL	NULL	NULL	Repeat	FFSFFFSSFSSFSSSFSFFS	NULL	NULL	NULL	TrialProc	Irrelevant	BlockList	1	1	0	105821	10	105331	1	634	105965
TRSEscan	1111	2	60.002	1	1255214901	8/5/2010	10:59:22	1	BlockProc	SessionList	2	2	1	6	NULL	NULL	NULL	NULL	6	2	6	Faces	NULL	NULL	NULL	Scenes	1	2390	0	113220	10	110930	0	NULL	NULL	face/f_085.bmp	NULL	NULL	NULL	NULL	NULL	NULL	Repeat	FFSFFFSSFSSFSSSFSFFS	NULL	NULL	NULL	TrialProc	Irrelevant	BlockList	1	1	0	110820	9	110330	1	538	110868
TRSEscan	1111	2	60.002	1	1255214901	8/5/2010	10:59:22	1	BlockProc	SessionList	2	2	1	7	NULL	NULL	NULL	NULL	7	2	7	Faces	NULL	NULL	NULL	Scenes	1	6390	0	120220	10	113930	0	NULL	NULL	face/m_047.bmp	NULL	NULL	NULL	NULL	NULL	NULL	Novel	FFSFFFSSFSSFSSSFSFFS	NULL	NULL	NULL	TrialProc	Irrelevant	BlockList	1	1	0	113820	10	113330	1	570	113900
TRSEscan	1111	2	60.002	1	1255214901	8/5/2010	10:59:22	1	BlockProc	SessionList	2	2	1	8	NULL	NULL	NULL	NULL	8	2	8	Scenes	NULL	NULL	NULL	Scenes	1	2390	0	123220	10	120930	3	NULL	NULL	scene/s_216.bmp	NULL	NULL	NULL	NULL	NULL	NULL	Novel	FFSFFFSSFSSFSSSFSFFS	NULL	NULL	NULL	TrialProc	Relevant	BlockList	1	1	0	120820	10	120330	1	818	121148
TRSEscan	1111	2	60.002	1	1255214901	8/5/2010	10:59:22	1	BlockProc	SessionList	2	2	1	9	NULL	NULL	NULL	NULL	9	2	9	Scenes	NULL	NULL	NULL	Scenes	2	4390	0	128220	10	123930	0	NULL	NULL	scene/s_216.bmp	NULL	NULL	NULL	NULL	NULL	NULL	Repeat	FFSFFFSSFSSFSSSFSFFS	NULL	NULL	NULL	TrialProc	Relevant	BlockList	1	2	0	123820	10	123330	2	826	124156
TRSEscan	1111	2	60.002	1	1255214901	8/5/2010	10:59:22	1	BlockProc	SessionList	2	2	1	10	NULL	NULL	NULL	NULL	10	2	10	Faces	NULL	NULL	NULL	Scenes	1	2390	0	131220	10	128930	2	NULL	NULL	face/m_047.bmp	NULL	NULL	NULL	NULL	NULL	NULL	Repeat	FFSFFFSSFSSFSSSFSFFS	NULL	NULL	NULL	TrialProc	Irrelevant	BlockList	1	1	0	128820	10	128330	1	522	128852
TRSEscan	1111	2	60.002	1	1255214901	8/5/2010	10:59:22	1	BlockProc	SessionList	2	2	1	11	NULL	NULL	NULL	NULL	11	2	11	Scenes	NULL	NULL	NULL	Scenes	2	4390	0	136220	10	131930	1	NULL	NULL	scene/s_216.bmp	NULL	NULL	NULL	NULL	NULL	NULL	Repeat	FFSFFFSSFSSFSSSFSFFS	NULL	NULL	NULL	TrialProc	Relevant	BlockList	1	2	0	131820	10	131330	2	794	132124
TRSEscan	1111	2	60.002	1	1255214901	8/5/2010	10:59:22	1	BlockProc	SessionList	2	2	1	12	NULL	NULL	NULL	NULL	12	2	12	Scenes	NULL	NULL	NULL	Scenes	1	6390	0	143220	10	136930	0	NULL	NULL	scene/s_316.bmp	NULL	NULL	NULL	NULL	NULL	NULL	Novel	FFSFFFSSFSSFSSSFSFFS	NULL	NULL	NULL	TrialProc	Relevant	BlockList	1	1	0	136820	10	136330	1	866	137196
TRSEscan	1111	2	60.002	1	1255214901	8/5/2010	10:59:22	1	BlockProc	SessionList	2	2	1	13	NULL	NULL	NULL	NULL	13	2	13	Faces	NULL	NULL	NULL	Scenes	1	4390	0	148220	10	143930	2	NULL	NULL	face/m_010.bmp	NULL	NULL	NULL	NULL	NULL	NULL	Novel	FFSFFFSSFSSFSSSFSFFS	NULL	NULL	NULL	TrialProc	Irrelevant	BlockList	1	1	0	143820	10	143330	1	586	143916
TRSEscan	1111	2	60.002	1	1255214901	8/5/2010	10:59:22	1	BlockProc	SessionList	2	2	1	14	NULL	NULL	NULL	NULL	14	2	14	Scenes	NULL	NULL	NULL	Scenes	2	2390	0	151220	10	148930	1	NULL	NULL	scene/s_316.bmp	NULL	NULL	NULL	NULL	NULL	NULL	Repeat	FFSFFFSSFSSFSSSFSFFS	NULL	NULL	NULL	TrialProc	Relevant	BlockList	1	2	0	148820	10	148330	2	922	149252
TRSEscan	1111	2	60.002	1	1255214901	8/5/2010	10:59:22	1	BlockProc	SessionList	2	2	1	15	NULL	NULL	NULL	NULL	15	2	15	Scenes	NULL	NULL	NULL	Scenes	1	6390	0	158219	10	151929	0	NULL	NULL	scene/s_049.bmp	NULL	NULL	NULL	NULL	NULL	NULL	Novel	FFSFFFSSFSSFSSSFSFFS	NULL	NULL	NULL	TrialProc	Relevant	BlockList	1	1	0	151819	9	151329	1	738	152067
TRSEscan	1111	2	60.002	1	1255214901	8/5/2010	10:59:22	1	BlockProc	SessionList	2	2	1	16	NULL	NULL	NULL	NULL	16	2	16	Scenes	NULL	NULL	NULL	Scenes	1	4390	0	163219	10	158929	0	NULL	NULL	scene/s_166.bmp	NULL	NULL	NULL	NULL	NULL	NULL	Novel	FFSFFFSSFSSFSSSFSFFS	NULL	NULL	NULL	TrialProc	Relevant	BlockList	1	1	0	158819	10	158329	1	874	159203
TRSEscan	1111	2	60.002	1	1255214901	8/5/2010	10:59:22	1	BlockProc	SessionList	2	2	1	17	NULL	NULL	NULL	NULL	17	2	17	Faces	NULL	NULL	NULL	Scenes	1	6390	0	170219	10	163929	3	NULL	NULL	face/m_049.bmp	NULL	NULL	NULL	NULL	NULL	NULL	Novel	FFSFFFSSFSSFSSSFSFFS	NULL	NULL	NULL	TrialProc	Irrelevant	BlockList	1	1	0	163819	10	163329	1	538	163867
TRSEscan	1111	2	60.002	1	1255214901	8/5/2010	10:59:22	1	BlockProc	SessionList	2	2	1	18	NULL	NULL	NULL	NULL	18	2	18	Scenes	NULL	NULL	NULL	Scenes	2	2390	0	173219	10	170929	1	NULL	NULL	scene/s_166.bmp	NULL	NULL	NULL	NULL	NULL	NULL	Repeat	FFSFFFSSFSSFSSSFSFFS	NULL	NULL	NULL	TrialProc	Relevant	BlockList	1	2	0	170819	10	170329	2	794	171123
TRSEscan	1111	2	60.002	1	1255214901	8/5/2010	10:59:22	1	BlockProc	SessionList	2	2	1	19	NULL	NULL	NULL	NULL	19	2	19	Faces	NULL	NULL	NULL	Scenes	1	2390	0	176219	10	173929	1	NULL	NULL	face/m_049.bmp	NULL	NULL	NULL	NULL	NULL	NULL	Repeat	FFSFFFSSFSSFSSSFSFFS	NULL	NULL	NULL	TrialProc	Irrelevant	BlockList	1	1	0	173819	10	173329	1	602	173931
TRSEscan	1111	2	60.002	1	1255214901	8/5/2010	10:59:22	1	BlockProc	SessionList	2	2	1	20	NULL	NULL	NULL	NULL	20	2	20	Faces	NULL	NULL	NULL	Scenes	1	6390	0	183219	10	176929	0	NULL	NULL	face/f_003.bmp	NULL	NULL	NULL	NULL	NULL	NULL	Novel	FFSFFFSSFSSFSSSFSFFS	NULL	NULL	NULL	TrialProc	Irrelevant	BlockList	1	1	0	176819	10	176329	1	626	176955
TRSEscan	1111	2	60.002	1	1255214901	8/5/2010	10:59:22	1	BlockProc	SessionList	2	2	1	21	NULL	NULL	NULL	NULL	21	2	21	Scenes	NULL	NULL	NULL	Scenes	1	4390	0	188219	10	183929	2	NULL	NULL	scene/s_168.bmp	NULL	NULL	NULL	NULL	NULL	NULL	Novel	FFSFFFSSFSSFSSSFSFFS	NULL	NULL	NULL	TrialProc	Relevant	BlockList	1	1	0	183819	10	183329	1	802	184131
TRSEscan	1111	2	60.002	1	1255214901	8/5/2010	10:59:22	1	BlockProc	SessionList	2	2	1	22	NULL	NULL	NULL	NULL	22	2	22		NULL	NULL	NULL	Scenes			NULL	NULL	NULL	NULL		203218	201328		NULL	NULL	NULL	NULL	NULL	NULL			NULL	NULL	NULL	FeedbackProc		BlockList	NULL	NULL	NULL	NULL	NULL	NULL	NULL	NULL	NULL
TRSEscan	1111	2	60.002	1	1255214901	8/5/2010	10:59:22	2	BlockProc	SessionList	2	2	2	1	-999999	207826	10	203328	1	3	23		1	2	2118	Categorize			NULL	NULL	NULL	NULL		NULL	NULL		221682	1	210962	0	222684	221694			0	224584	222694	InstrProc		BlockList	NULL	NULL	NULL	NULL	NULL	NULL	NULL	NULL	NULL
TRSEscan	1111	2	60.002	1	1255214901	8/5/2010	10:59:22	2	BlockProc	SessionList	2	2	2	2	NULL	NULL	NULL	NULL	2	3	24	Faces	NULL	NULL	NULL	Categorize	1	2390	0	227584	10	225294	0	NULL	NULL	face/f_020.bmp	NULL	NULL	NULL	NULL	NULL	NULL	Novel	FFSFFFSSFSSFSSSFSFFS	NULL	NULL	NULL	TrialProc	Irrelevant	BlockList	1	1	0	225184	10	224694	1	820	225514
TRSEscan	1111	2	60.002	1	1255214901	8/5/2010	10:59:22	2	BlockProc	SessionList	2	2	2	3	NULL	NULL	NULL	NULL	3	3	25	Faces	NULL	NULL	NULL	Categorize	1	4390	0	232584	10	228294	0	NULL	NULL	face/m_043.bmp	NULL	NULL	NULL	NULL	NULL	NULL	Novel	FFSFFFSSFSSFSSSFSFFS	NULL	NULL	NULL	TrialProc	Irrelevant	BlockList	1	1	0	228184	10	227694	1	524	228218
TRSEscan	1111	2	60.002	1	1255214901	8/5/2010	10:59:22	2	BlockProc	SessionList	2	2	2	4	NULL	NULL	NULL	NULL	4	3	26	Scenes	NULL	NULL	NULL	Categorize	2	6390	0	239584	10	233294	2	NULL	NULL	scene/s_234.bmp	NULL	NULL	NULL	NULL	NULL	NULL	Novel	FFSFFFSSFSSFSSSFSFFS	NULL	NULL	NULL	TrialProc	Irrelevant	BlockList	1	2	0	233184	10	232694	2	643	233337
TRSEscan	1111	2	60.002	1	1255214901	8/5/2010	10:59:22	2	BlockProc	SessionList	2	2	2	5	NULL	NULL	NULL	NULL	5	3	27	Faces	NULL	NULL	NULL	Categorize	1	4390	0	244584	10	240294	1	NULL	NULL	face/m_043.bmp	NULL	NULL	NULL	NULL	NULL	NULL	Repeat	FFSFFFSSFSSFSSSFSFFS	NULL	NULL	NULL	TrialProc	Irrelevant	BlockList	1	1	0	240184	10	239694	1	475	240169
TRSEscan	1111	2	60.002	1	1255214901	8/5/2010	10:59:22	2	BlockProc	SessionList	2	2	2	6	NULL	NULL	NULL	NULL	6	3	28	Faces	NULL	NULL	NULL	Categorize	1	2390	0	247584	10	245294	0	NULL	NULL	face/m_043.bmp	NULL	NULL	NULL	NULL	NULL	NULL	Repeat	FFSFFFSSFSSFSSSFSFFS	NULL	NULL	NULL	TrialProc	Irrelevant	BlockList	1	1	0	245184	10	244694	1	659	245353
TRSEscan	1111	2	60.002	1	1255214901	8/5/2010	10:59:22	2	BlockProc	SessionList	2	2	2	7	NULL	NULL	NULL	NULL	7	3	29	Faces	NULL	NULL	NULL	Categorize	1	6390	0	254584	10	248294	0	NULL	NULL	face/f_141.bmp	NULL	NULL	NULL	NULL	NULL	NULL	Novel	FFSFFFSSFSSFSSSFSFFS	NULL	NULL	NULL	TrialProc	Irrelevant	BlockList	1	1	0	248184	10	247694	1	475	248169
TRSEscan	1111	2	60.002	1	1255214901	8/5/2010	10:59:22	2	BlockProc	SessionList	2	2	2	8	NULL	NULL	NULL	NULL	8	3	30	Scenes	NULL	NULL	NULL	Categorize	2	2390	0	257584	10	255294	3	NULL	NULL	scene/s_383.bmp	NULL	NULL	NULL	NULL	NULL	NULL	Novel	FFSFFFSSFSSFSSSFSFFS	NULL	NULL	NULL	TrialProc	Irrelevant	BlockList	1	2	0	255184	10	254694	2	691	255385
TRSEscan	1111	2	60.002	1	1255214901	8/5/2010	10:59:22	2	BlockProc	SessionList	2	2	2	9	NULL	NULL	NULL	NULL	9	3	31	Scenes	NULL	NULL	NULL	Categorize	2	4390	0	262583	10	258293	0	NULL	NULL	scene/s_383.bmp	NULL	NULL	NULL	NULL	NULL	NULL	Repeat	FFSFFFSSFSSFSSSFSFFS	NULL	NULL	NULL	TrialProc	Irrelevant	BlockList	1	2	0	258183	9	257693	2	636	258329
TRSEscan	1111	2	60.002	1	1255214901	8/5/2010	10:59:22	2	BlockProc	SessionList	2	2	2	10	NULL	NULL	NULL	NULL	10	3	32	Faces	NULL	NULL	NULL	Categorize	1	2390	0	265583	10	263293	2	NULL	NULL	face/f_141.bmp	NULL	NULL	NULL	NULL	NULL	NULL	Repeat	FFSFFFSSFSSFSSSFSFFS	NULL	NULL	NULL	TrialProc	Irrelevant	BlockList	1	1	0	263183	10	262693	1	532	263225
TRSEscan	1111	2	60.002	1	1255214901	8/5/2010	10:59:22	2	BlockProc	SessionList	2	2	2	11	NULL	NULL	NULL	NULL	11	3	33	Scenes	NULL	NULL	NULL	Categorize	2	4390	0	270583	10	266293	1	NULL	NULL	scene/s_383.bmp	NULL	NULL	NULL	NULL	NULL	NULL	Repeat	FFSFFFSSFSSFSSSFSFFS	NULL	NULL	NULL	TrialProc	Irrelevant	BlockList	1	2	0	266183	10	265693	2	676	266369
TRSEscan	1111	2	60.002	1	1255214901	8/5/2010	10:59:22	2	BlockProc	SessionList	2	2	2	12	NULL	NULL	NULL	NULL	12	3	34	Scenes	NULL	NULL	NULL	Categorize	2	6390	0	277583	10	271293	0	NULL	NULL	scene/s_043.bmp	NULL	NULL	NULL	NULL	NULL	NULL	Novel	FFSFFFSSFSSFSSSFSFFS	NULL	NULL	NULL	TrialProc	Irrelevant	BlockList	1	2	0	271183	10	270693	2	587	271280
TRSEscan	1111	2	60.002	1	1255214901	8/5/2010	10:59:22	2	BlockProc	SessionList	2	2	2	13	NULL	NULL	NULL	NULL	13	3	35	Faces	NULL	NULL	NULL	Categorize	1	4390	0	282583	10	278293	2	NULL	NULL	face/m_088.bmp	NULL	NULL	NULL	NULL	NULL	NULL	Novel	FFSFFFSSFSSFSSSFSFFS	NULL	NULL	NULL	TrialProc	Irrelevant	BlockList	1	1	0	278183	10	277693	1	739	278432
TRSEscan	1111	2	60.002	1	1255214901	8/5/2010	10:59:22	2	BlockProc	SessionList	2	2	2	14	NULL	NULL	NULL	NULL	14	3	36	Scenes	NULL	NULL	NULL	Categorize	2	2390	0	285583	10	283293	1	NULL	NULL	scene/s_043.bmp	NULL	NULL	NULL	NULL	NULL	NULL	Repeat	FFSFFFSSFSSFSSSFSFFS	NULL	NULL	NULL	TrialProc	Irrelevant	BlockList	1	2	0	283183	10	282693	2	667	283360
TRSEscan	1111	2	60.002	1	1255214901	8/5/2010	10:59:22	2	BlockProc	SessionList	2	2	2	15	NULL	NULL	NULL	NULL	15	3	37	Scenes	NULL	NULL	NULL	Categorize	2	6390	0	292583	10	286293	0	NULL	NULL	scene/s_156.bmp	NULL	NULL	NULL	NULL	NULL	NULL	Novel	FFSFFFSSFSSFSSSFSFFS	NULL	NULL	NULL	TrialProc	Irrelevant	BlockList	0	2	0	286183	10	285693	1	1019	286712
TRSEscan	1111	2	60.002	1	1255214901	8/5/2010	10:59:22	2	BlockProc	SessionList	2	2	2	16	NULL	NULL	NULL	NULL	16	3	38	Scenes	NULL	NULL	NULL	Categorize	2	4390	0	297583	10	293293	0	NULL	NULL	scene/s_334.bmp	NULL	NULL	NULL	NULL	NULL	NULL	Novel	FFSFFFSSFSSFSSSFSFFS	NULL	NULL	NULL	TrialProc	Irrelevant	BlockList	1	2	0	293183	10	292693	2	787	293480
TRSEscan	1111	2	60.002	1	1255214901	8/5/2010	10:59:22	2	BlockProc	SessionList	2	2	2	17	NULL	NULL	NULL	NULL	17	3	39	Faces	NULL	NULL	NULL	Categorize	1	6390	0	304582	10	298292	3	NULL	NULL	face/f_041.bmp	NULL	NULL	NULL	NULL	NULL	NULL	Novel	FFSFFFSSFSSFSSSFSFFS	NULL	NULL	NULL	TrialProc	Irrelevant	BlockList	1	1	0	298182	9	297692	1	524	298216
TRSEscan	1111	2	60.002	1	1255214901	8/5/2010	10:59:22	2	BlockProc	SessionList	2	2	2	18	NULL	NULL	NULL	NULL	18	3	40	Scenes	NULL	NULL	NULL	Categorize	2	2390	0	307582	10	305292	1	NULL	NULL	scene/s_334.bmp	NULL	NULL	NULL	NULL	NULL	NULL	Repeat	FFSFFFSSFSSFSSSFSFFS	NULL	NULL	NULL	TrialProc	Irrelevant	BlockList	1	2	0	305182	10	304692	2	684	305376
TRSEscan	1111	2	60.002	1	1255214901	8/5/2010	10:59:22	2	BlockProc	SessionList	2	2	2	19	NULL	NULL	NULL	NULL	19	3	41	Faces	NULL	NULL	NULL	Categorize	1	2390	0	310582	10	308292	1	NULL	NULL	face/f_041.bmp	NULL	NULL	NULL	NULL	NULL	NULL	Repeat	FFSFFFSSFSSFSSSFSFFS	NULL	NULL	NULL	TrialProc	Irrelevant	BlockList	1	1	0	308182	10	307692	1	588	308280
TRSEscan	1111	2	60.002	1	1255214901	8/5/2010	10:59:22	2	BlockProc	SessionList	2	2	2	20	NULL	NULL	NULL	NULL	20	3	42	Faces	NULL	NULL	NULL	Categorize	1	6390	0	317582	10	311292	0	NULL	NULL	face/m_147.bmp	NULL	NULL	NULL	NULL	NULL	NULL	Novel	FFSFFFSSFSSFSSSFSFFS	NULL	NULL	NULL	TrialProc	Irrelevant	BlockList	1	1	0	311182	10	310692	1	595	311287
TRSEscan	1111	2	60.002	1	1255214901	8/5/2010	10:59:22	2	BlockProc	SessionList	2	2	2	21	NULL	NULL	NULL	NULL	21	3	43	Scenes	NULL	NULL	NULL	Categorize	2	4390	0	322582	10	318292	2	NULL	NULL	scene/s_163.bmp	NULL	NULL	NULL	NULL	NULL	NULL	Novel	FFSFFFSSFSSFSSSFSFFS	NULL	NULL	NULL	TrialProc	Irrelevant	BlockList	1	2	0	318182	10	317692	2	819	318511
TRSEscan	1111	2	60.002	1	1255214901	8/5/2010	10:59:22	2	BlockProc	SessionList	2	2	2	22	NULL	NULL	NULL	NULL	22	3	44		NULL	NULL	NULL	Categorize			NULL	NULL	NULL	NULL		337582	335692		NULL	NULL	NULL	NULL	NULL	NULL			NULL	NULL	NULL	FeedbackProc		BlockList	NULL	NULL	NULL	NULL	NULL	NULL	NULL	NULL	NULL
TRSEscan	1111	2	60.002	1	1255214901	8/5/2010	10:59:22	3	BlockProc	SessionList	2	2	3	1	-999999	341343	9	337691	1	4	45		1	2	1001	Both			NULL	NULL	NULL	NULL		NULL	NULL		356046	16	343375	0	357048	356058			0	358948	357058	InstrProc		BlockList	NULL	NULL	NULL	NULL	NULL	NULL	NULL	NULL	NULL
TRSEscan	1111	2	60.002	1	1255214901	8/5/2010	10:59:22	3	BlockProc	SessionList	2	2	3	2	NULL	NULL	NULL	NULL	2	4	46	Faces	NULL	NULL	NULL	Both	1	2390	0	361948	10	359658	0	NULL	NULL	face/m_073.bmp	NULL	NULL	NULL	NULL	NULL	NULL	Novel	FFSFFFSSFSSFSSSFSFFS	NULL	NULL	NULL	TrialProc	Relevant	BlockList	1	1	0	359548	10	359058	1	804	359862
TRSEscan	1111	2	60.002	1	1255214901	8/5/2010	10:59:22	3	BlockProc	SessionList	2	2	3	3	NULL	NULL	NULL	NULL	3	4	47	Faces	NULL	NULL	NULL	Both	1	4390	0	366948	10	362658	0	NULL	NULL	face/m_124.bmp	NULL	NULL	NULL	NULL	NULL	NULL	Novel	FFSFFFSSFSSFSSSFSFFS	NULL	NULL	NULL	TrialProc	Relevant	BlockList	1	1	0	362548	10	362058	1	1052	363110
TRSEscan	1111	2	60.002	1	1255214901	8/5/2010	10:59:22	3	BlockProc	SessionList	2	2	3	4	NULL	NULL	NULL	NULL	4	4	48	Scenes	NULL	NULL	NULL	Both	1	6390	0	373947	10	367657	2	NULL	NULL	scene/s_122.bmp	NULL	NULL	NULL	NULL	NULL	NULL	Novel	FFSFFFSSFSSFSSSFSFFS	NULL	NULL	NULL	TrialProc	Relevant	BlockList	1	1	0	367547	9	367057	1	909	367966
TRSEscan	1111	2	60.002	1	1255214901	8/5/2010	10:59:22	3	BlockProc	SessionList	2	2	3	5	NULL	NULL	NULL	NULL	5	4	49	Faces	NULL	NULL	NULL	Both	2	4390	0	378947	10	374657	1	NULL	NULL	face/m_124.bmp	NULL	NULL	NULL	NULL	NULL	NULL	Repeat	FFSFFFSSFSSFSSSFSFFS	NULL	NULL	NULL	TrialProc	Relevant	BlockList	1	2	0	374547	10	374057	2	1021	375078
TRSEscan	1111	2	60.002	1	1255214901	8/5/2010	10:59:22	3	BlockProc	SessionList	2	2	3	6	NULL	NULL	NULL	NULL	6	4	50	Faces	NULL	NULL	NULL	Both	2	2390	0	381947	10	379657	0	NULL	NULL	face/m_124.bmp	NULL	NULL	NULL	NULL	NULL	NULL	Repeat	FFSFFFSSFSSFSSSFSFFS	NULL	NULL	NULL	TrialProc	Relevant	BlockList	1	2	0	379547	10	379057	2	829	379886
TRSEscan	1111	2	60.002	1	1255214901	8/5/2010	10:59:22	3	BlockProc	SessionList	2	2	3	7	NULL	NULL	NULL	NULL	7	4	51	Faces	NULL	NULL	NULL	Both	1	6390	0	388947	10	382657	0	NULL	NULL	face/m_122.bmp	NULL	NULL	NULL	NULL	NULL	NULL	Novel	FFSFFFSSFSSFSSSFSFFS	NULL	NULL	NULL	TrialProc	Relevant	BlockList	1	1	0	382547	10	382057	1	885	382942
TRSEscan	1111	2	60.002	1	1255214901	8/5/2010	10:59:22	3	BlockProc	SessionList	2	2	3	8	NULL	NULL	NULL	NULL	8	4	52	Scenes	NULL	NULL	NULL	Both	1	2390	0	391947	10	389657	3	NULL	NULL	scene/s_361.bmp	NULL	NULL	NULL	NULL	NULL	NULL	Novel	FFSFFFSSFSSFSSSFSFFS	NULL	NULL	NULL	TrialProc	Relevant	BlockList	1	1	0	389547	10	389057	1	813	389870
TRSEscan	1111	2	60.002	1	1255214901	8/5/2010	10:59:22	3	BlockProc	SessionList	2	2	3	9	NULL	NULL	NULL	NULL	9	4	53	Scenes	NULL	NULL	NULL	Both	2	4390	0	396947	10	392657	0	NULL	NULL	scene/s_361.bmp	NULL	NULL	NULL	NULL	NULL	NULL	Repeat	FFSFFFSSFSSFSSSFSFFS	NULL	NULL	NULL	TrialProc	Relevant	BlockList	1	2	0	392547	10	392057	2	732	392789
TRSEscan	1111	2	60.002	1	1255214901	8/5/2010	10:59:22	3	BlockProc	SessionList	2	2	3	10	NULL	NULL	NULL	NULL	10	4	54	Faces	NULL	NULL	NULL	Both	2	2390	0	399947	10	397657	2	NULL	NULL	face/m_122.bmp	NULL	NULL	NULL	NULL	NULL	NULL	Repeat	FFSFFFSSFSSFSSSFSFFS	NULL	NULL	NULL	TrialProc	Relevant	BlockList	1	2	0	397547	10	397057	2	1276	398333
TRSEscan	1111	2	60.002	1	1255214901	8/5/2010	10:59:22	3	BlockProc	SessionList	2	2	3	11	NULL	NULL	NULL	NULL	11	4	55	Scenes	NULL	NULL	NULL	Both	2	4390	0	404947	10	400657	1	NULL	NULL	scene/s_361.bmp	NULL	NULL	NULL	NULL	NULL	NULL	Repeat	FFSFFFSSFSSFSSSFSFFS	NULL	NULL	NULL	TrialProc	Relevant	BlockList	1	2	0	400547	10	400057	2	1012	401069
TRSEscan	1111	2	60.002	1	1255214901	8/5/2010	10:59:22	3	BlockProc	SessionList	2	2	3	12	NULL	NULL	NULL	NULL	12	4	56	Scenes	NULL	NULL	NULL	Both	1	6390	0	411946	10	405656	0	NULL	NULL	scene/s_159.bmp	NULL	NULL	NULL	NULL	NULL	NULL	Novel	FFSFFFSSFSSFSSSFSFFS	NULL	NULL	NULL	TrialProc	Relevant	BlockList	1	1	0	405546	9	405056	1	1005	406061
TRSEscan	1111	2	60.002	1	1255214901	8/5/2010	10:59:22	3	BlockProc	SessionList	2	2	3	13	NULL	NULL	NULL	NULL	13	4	57	Faces	NULL	NULL	NULL	Both	1	4390	0	416946	10	412656	2	NULL	NULL	face/m_029.bmp	NULL	NULL	NULL	NULL	NULL	NULL	Novel	FFSFFFSSFSSFSSSFSFFS	NULL	NULL	NULL	TrialProc	Relevant	BlockList	1	1	0	412546	10	412056	1	733	412789
TRSEscan	1111	2	60.002	1	1255214901	8/5/2010	10:59:22	3	BlockProc	SessionList	2	2	3	14	NULL	NULL	NULL	NULL	14	4	58	Scenes	NULL	NULL	NULL	Both	2	2390	0	419946	10	417656	1	NULL	NULL	scene/s_159.bmp	NULL	NULL	NULL	NULL	NULL	NULL	Repeat	FFSFFFSSFSSFSSSFSFFS	NULL	NULL	NULL	TrialProc	Relevant	BlockList	1	2	0	417546	10	417056	2	933	417989
TRSEscan	1111	2	60.002	1	1255214901	8/5/2010	10:59:22	3	BlockProc	SessionList	2	2	3	15	NULL	NULL	NULL	NULL	15	4	59	Scenes	NULL	NULL	NULL	Both	1	6390	0	426946	10	420656	0	NULL	NULL	scene/s_242.bmp	NULL	NULL	NULL	NULL	NULL	NULL	Novel	FFSFFFSSFSSFSSSFSFFS	NULL	NULL	NULL	TrialProc	Relevant	BlockList	1	1	0	420546	10	420056	1	1981	422037
TRSEscan	1111	2	60.002	1	1255214901	8/5/2010	10:59:22	3	BlockProc	SessionList	2	2	3	16	NULL	NULL	NULL	NULL	16	4	60	Scenes	NULL	NULL	NULL	Both	1	4390	0	431946	10	427656	0	NULL	NULL	scene/s_432.bmp	NULL	NULL	NULL	NULL	NULL	NULL	Novel	FFSFFFSSFSSFSSSFSFFS	NULL	NULL	NULL	TrialProc	Relevant	BlockList	1	1	0	427546	10	427056	1	885	427941
TRSEscan	1111	2	60.002	1	1255214901	8/5/2010	10:59:22	3	BlockProc	SessionList	2	2	3	17	NULL	NULL	NULL	NULL	17	4	61	Faces	NULL	NULL	NULL	Both	1	6390	0	438946	10	432656	3	NULL	NULL	face/f_005.bmp	NULL	NULL	NULL	NULL	NULL	NULL	Novel	FFSFFFSSFSSFSSSFSFFS	NULL	NULL	NULL	TrialProc	Relevant	BlockList	1	1	0	432546	10	432056	1	717	432773
TRSEscan	1111	2	60.002	1	1255214901	8/5/2010	10:59:22	3	BlockProc	SessionList	2	2	3	18	NULL	NULL	NULL	NULL	18	4	62	Scenes	NULL	NULL	NULL	Both	2	2390	0	441946	10	439656	1	NULL	NULL	scene/s_432.bmp	NULL	NULL	NULL	NULL	NULL	NULL	Repeat	FFSFFFSSFSSFSSSFSFFS	NULL	NULL	NULL	TrialProc	Relevant	BlockList	1	2	0	439546	10	439056	2	836	439892
TRSEscan	1111	2	60.002	1	1255214901	8/5/2010	10:59:22	3	BlockProc	SessionList	2	2	3	19	NULL	NULL	NULL	NULL	19	4	63	Faces	NULL	NULL	NULL	Both	2	2390	0	444946	10	442656	1	NULL	NULL	face/f_005.bmp	NULL	NULL	NULL	NULL	NULL	NULL	Repeat	FFSFFFSSFSSFSSSFSFFS	NULL	NULL	NULL	TrialProc	Relevant	BlockList	1	2	0	442546	10	442056	2	1388	443444
TRSEscan	1111	2	60.002	1	1255214901	8/5/2010	10:59:22	3	BlockProc	SessionList	2	2	3	20	NULL	NULL	NULL	NULL	20	4	64	Faces	NULL	NULL	NULL	Both	1	6390	0	451945	10	445655	0	NULL	NULL	face/m_085.bmp	NULL	NULL	NULL	NULL	NULL	NULL	Novel	FFSFFFSSFSSFSSSFSFFS	NULL	NULL	NULL	TrialProc	Relevant	BlockList	1	1	0	445545	9	445055	1	965	446020
TRSEscan	1111	2	60.002	1	1255214901	8/5/2010	10:59:22	3	BlockProc	SessionList	2	2	3	21	NULL	NULL	NULL	NULL	21	4	65	Scenes	NULL	NULL	NULL	Both	1	4390	0	456945	10	452655	2	NULL	NULL	scene/s_400.bmp	NULL	NULL	NULL	NULL	NULL	NULL	Novel	FFSFFFSSFSSFSSSFSFFS	NULL	NULL	NULL	TrialProc	Relevant	BlockList	1	1	0	452545	10	452055	1	1085	453140
TRSEscan	1111	2	60.002	1	1255214901	8/5/2010	10:59:22	3	BlockProc	SessionList	2	2	3	22	NULL	NULL	NULL	NULL	22	4	66		NULL	NULL	NULL	Both			NULL	NULL	NULL	NULL		471945	470055		NULL	NULL	NULL	NULL	NULL	NULL			NULL	NULL	NULL	FeedbackProc		BlockList	NULL	NULL	NULL	NULL	NULL	NULL	NULL	NULL	NULL
TRSEscan	1111	2	60.002	1	1255214901	8/5/2010	10:59:22	4	BlockProc	SessionList	2	2	4	1	-999999	476739	10	472055	1	5	67		1	2	1168	Faces			NULL	NULL	NULL	NULL		NULL	NULL		490723	1	478939	0	491728	490738			0	493628	491738	InstrProc		BlockList	NULL	NULL	NULL	NULL	NULL	NULL	NULL	NULL	NULL
TRSEscan	1111	2	60.002	1	1255214901	8/5/2010	10:59:22	4	BlockProc	SessionList	2	2	4	2	NULL	NULL	NULL	NULL	2	5	68	Faces	NULL	NULL	NULL	Faces	1	2390	0	496628	10	494338	0	NULL	NULL	face/f_123.bmp	NULL	NULL	NULL	NULL	NULL	NULL	Novel	FFSFFFSSFSSFSSSFSFFS	NULL	NULL	NULL	TrialProc	Relevant	BlockList	1	1	0	494228	10	493738	1	777	494515
TRSEscan	1111	2	60.002	1	1255214901	8/5/2010	10:59:22	4	BlockProc	SessionList	2	2	4	3	NULL	NULL	NULL	NULL	3	5	69	Faces	NULL	NULL	NULL	Faces	1	4390	0	501628	10	497338	0	NULL	NULL	face/m_027.bmp	NULL	NULL	NULL	NULL	NULL	NULL	Novel	FFSFFFSSFSSFSSSFSFFS	NULL	NULL	NULL	TrialProc	Relevant	BlockList	1	1	0	497228	10	496738	1	769	497507
TRSEscan	1111	2	60.002	1	1255214901	8/5/2010	10:59:22	4	BlockProc	SessionList	2	2	4	4	NULL	NULL	NULL	NULL	4	5	70	Scenes	NULL	NULL	NULL	Faces	1	6390	0	508627	10	502337	2	NULL	NULL	scene/s_425.bmp	NULL	NULL	NULL	NULL	NULL	NULL	Novel	FFSFFFSSFSSFSSSFSFFS	NULL	NULL	NULL	TrialProc	Irrelevant	BlockList	1	1	0	502227	9	501737	1	954	502691
TRSEscan	1111	2	60.002	1	1255214901	8/5/2010	10:59:22	4	BlockProc	SessionList	2	2	4	5	NULL	NULL	NULL	NULL	5	5	71	Faces	NULL	NULL	NULL	Faces	2	4390	0	513627	10	509337	1	NULL	NULL	face/m_027.bmp	NULL	NULL	NULL	NULL	NULL	NULL	Repeat	FFSFFFSSFSSFSSSFSFFS	NULL	NULL	NULL	TrialProc	Relevant	BlockList	1	2	0	509227	10	508737	2	930	509667
TRSEscan	1111	2	60.002	1	1255214901	8/5/2010	10:59:22	4	BlockProc	SessionList	2	2	4	6	NULL	NULL	NULL	NULL	6	5	72	Faces	NULL	NULL	NULL	Faces	2	2390	0	516627	10	514337	0	NULL	NULL	face/m_027.bmp	NULL	NULL	NULL	NULL	NULL	NULL	Repeat	FFSFFFSSFSSFSSSFSFFS	NULL	NULL	NULL	TrialProc	Relevant	BlockList	1	2	0	514227	10	513737	2	593	514330
TRSEscan	1111	2	60.002	1	1255214901	8/5/2010	10:59:22	4	BlockProc	SessionList	2	2	4	7	NULL	NULL	NULL	NULL	7	5	73	Faces	NULL	NULL	NULL	Faces	1	6390	0	523627	10	517337	0	NULL	NULL	face/f_115.bmp	NULL	NULL	NULL	NULL	NULL	NULL	Novel	FFSFFFSSFSSFSSSFSFFS	NULL	NULL	NULL	TrialProc	Relevant	BlockList	1	1	0	517227	10	516737	1	745	517482
TRSEscan	1111	2	60.002	1	1255214901	8/5/2010	10:59:22	4	BlockProc	SessionList	2	2	4	8	NULL	NULL	NULL	NULL	8	5	74	Scenes	NULL	NULL	NULL	Faces	1	2390	0	526627	10	524337	3	NULL	NULL	scene/s_272.bmp	NULL	NULL	NULL	NULL	NULL	NULL	Novel	FFSFFFSSFSSFSSSFSFFS	NULL	NULL	NULL	TrialProc	Irrelevant	BlockList	1	1	0	524227	10	523737	1	817	524554
TRSEscan	1111	2	60.002	1	1255214901	8/5/2010	10:59:22	4	BlockProc	SessionList	2	2	4	9	NULL	NULL	NULL	NULL	9	5	75	Scenes	NULL	NULL	NULL	Faces	1	4390	0	531627	10	527337	0	NULL	NULL	scene/s_272.bmp	NULL	NULL	NULL	NULL	NULL	NULL	Repeat	FFSFFFSSFSSFSSSFSFFS	NULL	NULL	NULL	TrialProc	Irrelevant	BlockList	1	1	0	527227	10	526737	1	793	527530
TRSEscan	1111	2	60.002	1	1255214901	8/5/2010	10:59:22	4	BlockProc	SessionList	2	2	4	10	NULL	NULL	NULL	NULL	10	5	76	Faces	NULL	NULL	NULL	Faces	2	2390	0	534627	10	532337	2	NULL	NULL	face/f_115.bmp	NULL	NULL	NULL	NULL	NULL	NULL	Repeat	FFSFFFSSFSSFSSSFSFFS	NULL	NULL	NULL	TrialProc	Relevant	BlockList	1	2	0	532227	10	531737	2	969	532706
TRSEscan	1111	2	60.002	1	1255214901	8/5/2010	10:59:22	4	BlockProc	SessionList	2	2	4	11	NULL	NULL	NULL	NULL	11	5	77	Scenes	NULL	NULL	NULL	Faces	1	4390	0	539627	10	535337	1	NULL	NULL	scene/s_272.bmp	NULL	NULL	NULL	NULL	NULL	NULL	Repeat	FFSFFFSSFSSFSSSFSFFS	NULL	NULL	NULL	TrialProc	Irrelevant	BlockList	1	1	0	535227	10	534737	1	553	535290
TRSEscan	1111	2	60.002	1	1255214901	8/5/2010	10:59:22	4	BlockProc	SessionList	2	2	4	12	NULL	NULL	NULL	NULL	12	5	78	Scenes	NULL	NULL	NULL	Faces	1	6390	0	546626	10	540336	0	NULL	NULL	scene/s_304.bmp	NULL	NULL	NULL	NULL	NULL	NULL	Novel	FFSFFFSSFSSFSSSFSFFS	NULL	NULL	NULL	TrialProc	Irrelevant	BlockList	1	1	0	540226	9	539736	1	722	540458
TRSEscan	1111	2	60.002	1	1255214901	8/5/2010	10:59:22	4	BlockProc	SessionList	2	2	4	13	NULL	NULL	NULL	NULL	13	5	79	Faces	NULL	NULL	NULL	Faces	1	4390	0	551626	10	547336	2	NULL	NULL	face/m_089.bmp	NULL	NULL	NULL	NULL	NULL	NULL	Novel	FFSFFFSSFSSFSSSFSFFS	NULL	NULL	NULL	TrialProc	Relevant	BlockList	1	1	0	547226	10	546736	1	802	547538
TRSEscan	1111	2	60.002	1	1255214901	8/5/2010	10:59:22	4	BlockProc	SessionList	2	2	4	14	NULL	NULL	NULL	NULL	14	5	80	Scenes	NULL	NULL	NULL	Faces	1	2390	0	554626	10	552336	1	NULL	NULL	scene/s_304.bmp	NULL	NULL	NULL	NULL	NULL	NULL	Repeat	FFSFFFSSFSSFSSSFSFFS	NULL	NULL	NULL	TrialProc	Irrelevant	BlockList	1	1	0	552226	10	551736	1	641	552377
TRSEscan	1111	2	60.002	1	1255214901	8/5/2010	10:59:22	4	BlockProc	SessionList	2	2	4	15	NULL	NULL	NULL	NULL	15	5	81	Scenes	NULL	NULL	NULL	Faces	1	6390	0	561626	10	555336	0	NULL	NULL	scene/s_170.bmp	NULL	NULL	NULL	NULL	NULL	NULL	Novel	FFSFFFSSFSSFSSSFSFFS	NULL	NULL	NULL	TrialProc	Irrelevant	BlockList	1	1	0	555226	10	554736	1	593	555329
TRSEscan	1111	2	60.002	1	1255214901	8/5/2010	10:59:22	4	BlockProc	SessionList	2	2	4	16	NULL	NULL	NULL	NULL	16	5	82	Scenes	NULL	NULL	NULL	Faces	1	4390	0	566626	10	562336	0	NULL	NULL	scene/s_192.bmp	NULL	NULL	NULL	NULL	NULL	NULL	Novel	FFSFFFSSFSSFSSSFSFFS	NULL	NULL	NULL	TrialProc	Irrelevant	BlockList	1	1	0	562226	10	561736	1	609	562345
TRSEscan	1111	2	60.002	1	1255214901	8/5/2010	10:59:22	4	BlockProc	SessionList	2	2	4	17	NULL	NULL	NULL	NULL	17	5	83	Faces	NULL	NULL	NULL	Faces	1	6390	0	573626	10	567336	3	NULL	NULL	face/f_045.bmp	NULL	NULL	NULL	NULL	NULL	NULL	Novel	FFSFFFSSFSSFSSSFSFFS	NULL	NULL	NULL	TrialProc	Relevant	BlockList	1	1	0	567226	10	566736	1	689	567425
TRSEscan	1111	2	60.002	1	1255214901	8/5/2010	10:59:22	4	BlockProc	SessionList	2	2	4	18	NULL	NULL	NULL	NULL	18	5	84	Scenes	NULL	NULL	NULL	Faces	1	2390	0	576626	10	574336	1	NULL	NULL	scene/s_192.bmp	NULL	NULL	NULL	NULL	NULL	NULL	Repeat	FFSFFFSSFSSFSSSFSFFS	NULL	NULL	NULL	TrialProc	Irrelevant	BlockList	1	1	0	574226	10	573736	1	721	574457
TRSEscan	1111	2	60.002	1	1255214901	8/5/2010	10:59:22	4	BlockProc	SessionList	2	2	4	19	NULL	NULL	NULL	NULL	19	5	85	Faces	NULL	NULL	NULL	Faces	2	2390	0	579626	10	577336	1	NULL	NULL	face/f_045.bmp	NULL	NULL	NULL	NULL	NULL	NULL	Repeat	FFSFFFSSFSSFSSSFSFFS	NULL	NULL	NULL	TrialProc	Relevant	BlockList	1	2	0	577226	10	576736	2	689	577425
TRSEscan	1111	2	60.002	1	1255214901	8/5/2010	10:59:22	4	BlockProc	SessionList	2	2	4	20	NULL	NULL	NULL	NULL	20	5	86	Faces	NULL	NULL	NULL	Faces	1	6390	0	586625	10	580335	0	NULL	NULL	face/f_146.bmp	NULL	NULL	NULL	NULL	NULL	NULL	Novel	FFSFFFSSFSSFSSSFSFFS	NULL	NULL	NULL	TrialProc	Relevant	BlockList	1	1	0	580225	9	579735	1	738	580473
TRSEscan	1111	2	60.002	1	1255214901	8/5/2010	10:59:22	4	BlockProc	SessionList	2	2	4	21	NULL	NULL	NULL	NULL	21	5	87	Scenes	NULL	NULL	NULL	Faces	1	4390	0	591625	10	587335	2	NULL	NULL	scene/s_352.bmp	NULL	NULL	NULL	NULL	NULL	NULL	Novel	FFSFFFSSFSSFSSSFSFFS	NULL	NULL	NULL	TrialProc	Irrelevant	BlockList	1	1	0	587225	10	586735	1	770	587505
TRSEscan	1111	2	60.002	1	1255214901	8/5/2010	10:59:22	4	BlockProc	SessionList	2	2	4	22	NULL	NULL	NULL	NULL	22	5	88		NULL	NULL	NULL	Faces			NULL	NULL	NULL	NULL		606625	604735		NULL	NULL	NULL	NULL	NULL	NULL			NULL	NULL	NULL	FeedbackProc		BlockList	NULL	NULL	NULL	NULL	NULL	NULL	NULL	NULL	NULL
TRSEscan	1111	3	60.002	1	-879206835	8/5/2010	11:09:59	1	BlockProc	SessionList	2	2	1	1	-999999	71921	1	66777	1	2	1		1	2	1059	Categorize			NULL	NULL	NULL	NULL		NULL	NULL		83409	1	73994	0	84399	83409			0	86299	84409	InstrProc		BlockList	NULL	NULL	NULL	NULL	NULL	NULL	NULL	NULL	NULL
TRSEscan	1111	3	60.002	1	-879206835	8/5/2010	11:09:59	1	BlockProc	SessionList	2	2	1	2	NULL	NULL	NULL	NULL	2	2	2	Faces	NULL	NULL	NULL	Categorize	1	4390	0	91299	10	87009	0	NULL	NULL	face/f_066.bmp	NULL	NULL	NULL	NULL	NULL	NULL	Novel	FFSFFFSFFSSFSFSSSFSS	NULL	NULL	NULL	TrialProc	Irrelevant	BlockList	1	1	0	86899	10	86409	1	600	87009
TRSEscan	1111	3	60.002	1	-879206835	8/5/2010	11:09:59	1	BlockProc	SessionList	2	2	1	3	NULL	NULL	NULL	NULL	3	2	3	Faces	NULL	NULL	NULL	Categorize	1	2390	0	94299	10	92009	0	NULL	NULL	face/f_099.bmp	NULL	NULL	NULL	NULL	NULL	NULL	Novel	FFSFFFSFFSSFSFSSSFSS	NULL	NULL	NULL	TrialProc	Irrelevant	BlockList	1	1	0	91899	10	91409	1	528	91937
TRSEscan	1111	3	60.002	1	-879206835	8/5/2010	11:09:59	1	BlockProc	SessionList	2	2	1	4	NULL	NULL	NULL	NULL	4	2	4	Scenes	NULL	NULL	NULL	Categorize	2	2390	0	97299	10	95009	2	NULL	NULL	scene/s_315.bmp	NULL	NULL	NULL	NULL	NULL	NULL	Novel	FFSFFFSFFSSFSFSSSFSS	NULL	NULL	NULL	TrialProc	Irrelevant	BlockList	1	2	0	94899	10	94409	2	648	95057
TRSEscan	1111	3	60.002	1	-879206835	8/5/2010	11:09:59	1	BlockProc	SessionList	2	2	1	5	NULL	NULL	NULL	NULL	5	2	5	Faces	NULL	NULL	NULL	Categorize	1	6390	0	104299	10	98009	1	NULL	NULL	face/f_147.bmp	NULL	NULL	NULL	NULL	NULL	NULL	Novel	FFSFFFSFFSSFSFSSSFSS	NULL	NULL	NULL	TrialProc	Irrelevant	BlockList	1	1	0	97899	10	97409	1	656	98065
TRSEscan	1111	3	60.002	1	-879206835	8/5/2010	11:09:59	1	BlockProc	SessionList	2	2	1	6	NULL	NULL	NULL	NULL	6	2	6	Faces	NULL	NULL	NULL	Categorize	1	4390	0	109299	10	105009	0	NULL	NULL	face/f_147.bmp	NULL	NULL	NULL	NULL	NULL	NULL	Repeat	FFSFFFSFFSSFSFSSSFSS	NULL	NULL	NULL	TrialProc	Irrelevant	BlockList	1	1	0	104899	10	104409	1	647	105056
TRSEscan	1111	3	60.002	1	-879206835	8/5/2010	11:09:59	1	BlockProc	SessionList	2	2	1	7	NULL	NULL	NULL	NULL	7	2	7	Faces	NULL	NULL	NULL	Categorize	1	6390	0	116298	9	110008	0	NULL	NULL	face/m_071.bmp	NULL	NULL	NULL	NULL	NULL	NULL	Novel	FFSFFFSFFSSFSFSSSFSS	NULL	NULL	NULL	TrialProc	Irrelevant	BlockList	1	1	0	109899	10	109409	1	583	109992
TRSEscan	1111	3	60.002	1	-879206835	8/5/2010	11:09:59	1	BlockProc	SessionList	2	2	1	8	NULL	NULL	NULL	NULL	8	2	8	Scenes	NULL	NULL	NULL	Categorize	2	2390	0	119298	10	117008	3	NULL	NULL	scene/s_434.bmp	NULL	NULL	NULL	NULL	NULL	NULL	Novel	FFSFFFSFFSSFSFSSSFSS	NULL	NULL	NULL	TrialProc	Irrelevant	BlockList	1	2	0	116898	10	116408	2	888	117296
TRSEscan	1111	3	60.002	1	-879206835	8/5/2010	11:09:59	1	BlockProc	SessionList	2	2	1	9	NULL	NULL	NULL	NULL	9	2	9	Faces	NULL	NULL	NULL	Categorize	1	4390	0	124298	10	120008	1	NULL	NULL	face/f_006.bmp	NULL	NULL	NULL	NULL	NULL	NULL	Novel	FFSFFFSFFSSFSFSSSFSS	NULL	NULL	NULL	TrialProc	Irrelevant	BlockList	1	1	0	119898	10	119408	1	472	119880
TRSEscan	1111	3	60.002	1	-879206835	8/5/2010	11:09:59	1	BlockProc	SessionList	2	2	1	10	NULL	NULL	NULL	NULL	10	2	10	Faces	NULL	NULL	NULL	Categorize	1	6390	0	131298	10	125008	0	NULL	NULL	face/f_006.bmp	NULL	NULL	NULL	NULL	NULL	NULL	Repeat	FFSFFFSFFSSFSFSSSFSS	NULL	NULL	NULL	TrialProc	Irrelevant	BlockList	1	1	0	124898	10	124408	1	528	124936
TRSEscan	1111	3	60.002	1	-879206835	8/5/2010	11:09:59	1	BlockProc	SessionList	2	2	1	11	NULL	NULL	NULL	NULL	11	2	11	Scenes	NULL	NULL	NULL	Categorize	2	4390	0	136298	10	132008	2	NULL	NULL	scene/s_025.bmp	NULL	NULL	NULL	NULL	NULL	NULL	Novel	FFSFFFSFFSSFSFSSSFSS	NULL	NULL	NULL	TrialProc	Irrelevant	BlockList	1	2	0	131898	10	131408	2	824	132232
TRSEscan	1111	3	60.002	1	-879206835	8/5/2010	11:09:59	1	BlockProc	SessionList	2	2	1	12	NULL	NULL	NULL	NULL	12	2	12	Scenes	NULL	NULL	NULL	Categorize	2	2390	0	139298	10	137008	0	NULL	NULL	scene/s_025.bmp	NULL	NULL	NULL	NULL	NULL	NULL	Repeat	FFSFFFSFFSSFSFSSSFSS	NULL	NULL	NULL	TrialProc	Irrelevant	BlockList	1	2	0	136898	10	136408	2	768	137176
TRSEscan	1111	3	60.002	1	-879206835	8/5/2010	11:09:59	1	BlockProc	SessionList	2	2	1	13	NULL	NULL	NULL	NULL	13	2	13	Faces	NULL	NULL	NULL	Categorize	1	4390	0	144298	10	140008	2	NULL	NULL	face/f_006.bmp	NULL	NULL	NULL	NULL	NULL	NULL	Repeat	FFSFFFSFFSSFSFSSSFSS	NULL	NULL	NULL	TrialProc	Irrelevant	BlockList	1	1	0	139898	10	139408	1	568	139976
TRSEscan	1111	3	60.002	1	-879206835	8/5/2010	11:09:59	1	BlockProc	SessionList	2	2	1	14	NULL	NULL	NULL	NULL	14	2	14	Scenes	NULL	NULL	NULL	Categorize	2	2390	0	147298	10	145008	1	NULL	NULL	scene/s_317.bmp	NULL	NULL	NULL	NULL	NULL	NULL	Novel	FFSFFFSFFSSFSFSSSFSS	NULL	NULL	NULL	TrialProc	Irrelevant	BlockList	1	2	0	144898	10	144408	2	847	145255
TRSEscan	1111	3	60.002	1	-879206835	8/5/2010	11:09:59	1	BlockProc	SessionList	2	2	1	15	NULL	NULL	NULL	NULL	15	2	15	Faces	NULL	NULL	NULL	Categorize	1	6390	0	154298	10	148008	1	NULL	NULL	face/m_069.bmp	NULL	NULL	NULL	NULL	NULL	NULL	Novel	FFSFFFSFFSSFSFSSSFSS	NULL	NULL	NULL	TrialProc	Irrelevant	BlockList	1	1	0	147898	10	147408	1	407	147815
TRSEscan	1111	3	60.002	1	-879206835	8/5/2010	11:09:59	1	BlockProc	SessionList	2	2	1	16	NULL	NULL	NULL	NULL	16	2	16	Scenes	NULL	NULL	NULL	Categorize	2	4390	0	159297	10	155007	1	NULL	NULL	scene/s_306.bmp	NULL	NULL	NULL	NULL	NULL	NULL	Novel	FFSFFFSFFSSFSFSSSFSS	NULL	NULL	NULL	TrialProc	Irrelevant	BlockList	1	2	0	154897	9	154407	2	640	155047
TRSEscan	1111	3	60.002	1	-879206835	8/5/2010	11:09:59	1	BlockProc	SessionList	2	2	1	17	NULL	NULL	NULL	NULL	17	2	17	Scenes	NULL	NULL	NULL	Categorize	2	6390	0	166297	10	160007	0	NULL	NULL	scene/s_306.bmp	NULL	NULL	NULL	NULL	NULL	NULL	Repeat	FFSFFFSFFSSFSFSSSFSS	NULL	NULL	NULL	TrialProc	Irrelevant	BlockList	1	2	0	159897	10	159407	2	1088	160495
TRSEscan	1111	3	60.002	1	-879206835	8/5/2010	11:09:59	1	BlockProc	SessionList	2	2	1	18	NULL	NULL	NULL	NULL	18	2	18	Scenes	NULL	NULL	NULL	Categorize	2	2390	0	169297	10	167007	0	NULL	NULL	scene/s_306.bmp	NULL	NULL	NULL	NULL	NULL	NULL	Repeat	FFSFFFSFFSSFSFSSSFSS	NULL	NULL	NULL	TrialProc	Irrelevant	BlockList	1	2	0	166897	10	166407	2	632	167039
TRSEscan	1111	3	60.002	1	-879206835	8/5/2010	11:09:59	1	BlockProc	SessionList	2	2	1	19	NULL	NULL	NULL	NULL	19	2	19	Faces	NULL	NULL	NULL	Categorize	1	2390	0	172297	10	170007	3	NULL	NULL	face/m_069.bmp	NULL	NULL	NULL	NULL	NULL	NULL	Repeat	FFSFFFSFFSSFSFSSSFSS	NULL	NULL	NULL	TrialProc	Irrelevant	BlockList	1	1	0	169897	10	169407	1	536	169943
TRSEscan	1111	3	60.002	1	-879206835	8/5/2010	11:09:59	1	BlockProc	SessionList	2	2	1	20	NULL	NULL	NULL	NULL	20	2	20	Scenes	NULL	NULL	NULL	Categorize	2	4390	0	177297	10	173007	1	NULL	NULL	scene/s_351.bmp	NULL	NULL	NULL	NULL	NULL	NULL	Novel	FFSFFFSFFSSFSFSSSFSS	NULL	NULL	NULL	TrialProc	Irrelevant	BlockList	1	2	0	172897	10	172407	2	688	173095
TRSEscan	1111	3	60.002	1	-879206835	8/5/2010	11:09:59	1	BlockProc	SessionList	2	2	1	21	NULL	NULL	NULL	NULL	21	2	21	Scenes	NULL	NULL	NULL	Categorize	2	6390	0	184297	10	178007	0	NULL	NULL	scene/s_351.bmp	NULL	NULL	NULL	NULL	NULL	NULL	Repeat	FFSFFFSFFSSFSFSSSFSS	NULL	NULL	NULL	TrialProc	Irrelevant	BlockList	1	2	0	177897	10	177407	2	600	178007
TRSEscan	1111	3	60.002	1	-879206835	8/5/2010	11:09:59	1	BlockProc	SessionList	2	2	1	22	NULL	NULL	NULL	NULL	22	2	22		NULL	NULL	NULL	Categorize			NULL	NULL	NULL	NULL		199296	197406		NULL	NULL	NULL	NULL	NULL	NULL			NULL	NULL	NULL	FeedbackProc		BlockList	NULL	NULL	NULL	NULL	NULL	NULL	NULL	NULL	NULL
TRSEscan	1111	3	60.002	1	-879206835	8/5/2010	11:09:59	2	BlockProc	SessionList	2	2	2	1	-999999	202590	10	199406	1	3	23		1	2	1000	Both			NULL	NULL	NULL	NULL		NULL	NULL		217902	16	204623	0	218896	217906			0	220796	218906	InstrProc		BlockList	NULL	NULL	NULL	NULL	NULL	NULL	NULL	NULL	NULL
TRSEscan	1111	3	60.002	1	-879206835	8/5/2010	11:09:59	2	BlockProc	SessionList	2	2	2	2	NULL	NULL	NULL	NULL	2	3	24	Faces	NULL	NULL	NULL	Both	1	4390	0	225796	10	221506	0	NULL	NULL	face/m_068.bmp	NULL	NULL	NULL	NULL	NULL	NULL	Novel	FFSFFFSFFSSFSFSSSFSS	NULL	NULL	NULL	TrialProc	Relevant	BlockList	1	1	0	221396	10	220906	1	867	221773
TRSEscan	1111	3	60.002	1	-879206835	8/5/2010	11:09:59	2	BlockProc	SessionList	2	2	2	3	NULL	NULL	NULL	NULL	3	3	25	Faces	NULL	NULL	NULL	Both	1	2390	0	228796	10	226506	0	NULL	NULL	face/m_070.bmp	NULL	NULL	NULL	NULL	NULL	NULL	Novel	FFSFFFSFFSSFSFSSSFSS	NULL	NULL	NULL	TrialProc	Relevant	BlockList	1	1	0	226396	10	225906	1	1163	227069
TRSEscan	1111	3	60.002	1	-879206835	8/5/2010	11:09:59	2	BlockProc	SessionList	2	2	2	4	NULL	NULL	NULL	NULL	4	3	26	Scenes	NULL	NULL	NULL	Both	1	2390	0	231796	10	229506	2	NULL	NULL	scene/s_342.bmp	NULL	NULL	NULL	NULL	NULL	NULL	Novel	FFSFFFSFFSSFSFSSSFSS	NULL	NULL	NULL	TrialProc	Relevant	BlockList	1	1	0	229396	10	228906	1	955	229861
TRSEscan	1111	3	60.002	1	-879206835	8/5/2010	11:09:59	2	BlockProc	SessionList	2	2	2	5	NULL	NULL	NULL	NULL	5	3	27	Faces	NULL	NULL	NULL	Both	1	6390	0	238795	10	232505	1	NULL	NULL	face/m_076.bmp	NULL	NULL	NULL	NULL	NULL	NULL	Novel	FFSFFFSFFSSFSFSSSFSS	NULL	NULL	NULL	TrialProc	Relevant	BlockList	1	1	0	232395	9	231905	1	1020	232925
TRSEscan	1111	3	60.002	1	-879206835	8/5/2010	11:09:59	2	BlockProc	SessionList	2	2	2	6	NULL	NULL	NULL	NULL	6	3	28	Faces	NULL	NULL	NULL	Both	2	4390	0	243795	10	239505	0	NULL	NULL	face/m_076.bmp	NULL	NULL	NULL	NULL	NULL	NULL	Repeat	FFSFFFSFFSSFSFSSSFSS	NULL	NULL	NULL	TrialProc	Relevant	BlockList	1	2	0	239395	10	238905	2	828	239733
TRSEscan	1111	3	60.002	1	-879206835	8/5/2010	11:09:59	2	BlockProc	SessionList	2	2	2	7	NULL	NULL	NULL	NULL	7	3	29	Faces	NULL	NULL	NULL	Both	1	6390	0	250795	10	244505	0	NULL	NULL	face/f_126.bmp	NULL	NULL	NULL	NULL	NULL	NULL	Novel	FFSFFFSFFSSFSFSSSFSS	NULL	NULL	NULL	TrialProc	Relevant	BlockList	1	1	0	244395	10	243905	1	740	244645
TRSEscan	1111	3	60.002	1	-879206835	8/5/2010	11:09:59	2	BlockProc	SessionList	2	2	2	8	NULL	NULL	NULL	NULL	8	3	30	Scenes	NULL	NULL	NULL	Both	1	2390	0	253795	10	251505	3	NULL	NULL	scene/s_171.bmp	NULL	NULL	NULL	NULL	NULL	NULL	Novel	FFSFFFSFFSSFSFSSSFSS	NULL	NULL	NULL	TrialProc	Relevant	BlockList	1	1	0	251395	10	250905	1	700	251605
TRSEscan	1111	3	60.002	1	-879206835	8/5/2010	11:09:59	2	BlockProc	SessionList	2	2	2	9	NULL	NULL	NULL	NULL	9	3	31	Faces	NULL	NULL	NULL	Both	1	4390	0	258795	10	254505	1	NULL	NULL	face/m_056.bmp	NULL	NULL	NULL	NULL	NULL	NULL	Novel	FFSFFFSFFSSFSFSSSFSS	NULL	NULL	NULL	TrialProc	Relevant	BlockList	1	1	0	254395	10	253905	1	868	254773
TRSEscan	1111	3	60.002	1	-879206835	8/5/2010	11:09:59	2	BlockProc	SessionList	2	2	2	10	NULL	NULL	NULL	NULL	10	3	32	Faces	NULL	NULL	NULL	Both	2	6390	0	265795	10	259505	0	NULL	NULL	face/m_056.bmp	NULL	NULL	NULL	NULL	NULL	NULL	Repeat	FFSFFFSFFSSFSFSSSFSS	NULL	NULL	NULL	TrialProc	Relevant	BlockList	1	2	0	259395	10	258905	2	1139	260044
TRSEscan	1111	3	60.002	1	-879206835	8/5/2010	11:09:59	2	BlockProc	SessionList	2	2	2	11	NULL	NULL	NULL	NULL	11	3	33	Scenes	NULL	NULL	NULL	Both	1	4390	0	270795	10	266505	2	NULL	NULL	scene/s_395.bmp	NULL	NULL	NULL	NULL	NULL	NULL	Novel	FFSFFFSFFSSFSFSSSFSS	NULL	NULL	NULL	TrialProc	Relevant	BlockList	1	1	0	266395	10	265905	1	1075	266980
TRSEscan	1111	3	60.002	1	-879206835	8/5/2010	11:09:59	2	BlockProc	SessionList	2	2	2	12	NULL	NULL	NULL	NULL	12	3	34	Scenes	NULL	NULL	NULL	Both	2	2390	0	273794	10	271504	0	NULL	NULL	scene/s_395.bmp	NULL	NULL	NULL	NULL	NULL	NULL	Repeat	FFSFFFSFFSSFSFSSSFSS	NULL	NULL	NULL	TrialProc	Relevant	BlockList	1	2	0	271394	9	270904	2	620	271524
TRSEscan	1111	3	60.002	1	-879206835	8/5/2010	11:09:59	2	BlockProc	SessionList	2	2	2	13	NULL	NULL	NULL	NULL	13	3	35	Faces	NULL	NULL	NULL	Both	2	4390	0	278794	10	274504	2	NULL	NULL	face/m_056.bmp	NULL	NULL	NULL	NULL	NULL	NULL	Repeat	FFSFFFSFFSSFSFSSSFSS	NULL	NULL	NULL	TrialProc	Relevant	BlockList	1	2	0	274394	10	273904	2	1588	275492
TRSEscan	1111	3	60.002	1	-879206835	8/5/2010	11:09:59	2	BlockProc	SessionList	2	2	2	14	NULL	NULL	NULL	NULL	14	3	36	Scenes	NULL	NULL	NULL	Both	1	2390	0	281794	10	279504	1	NULL	NULL	scene/s_391.bmp	NULL	NULL	NULL	NULL	NULL	NULL	Novel	FFSFFFSFFSSFSFSSSFSS	NULL	NULL	NULL	TrialProc	Relevant	BlockList	1	1	0	279394	10	278904	1	724	279628
TRSEscan	1111	3	60.002	1	-879206835	8/5/2010	11:09:59	2	BlockProc	SessionList	2	2	2	15	NULL	NULL	NULL	NULL	15	3	37	Faces	NULL	NULL	NULL	Both	1	6390	0	288794	10	282504	1	NULL	NULL	face/m_075.bmp	NULL	NULL	NULL	NULL	NULL	NULL	Novel	FFSFFFSFFSSFSFSSSFSS	NULL	NULL	NULL	TrialProc	Relevant	BlockList	1	1	0	282394	10	281904	1	1028	282932
TRSEscan	1111	3	60.002	1	-879206835	8/5/2010	11:09:59	2	BlockProc	SessionList	2	2	2	16	NULL	NULL	NULL	NULL	16	3	38	Scenes	NULL	NULL	NULL	Both	1	4390	0	293794	10	289504	1	NULL	NULL	scene/s_251.bmp	NULL	NULL	NULL	NULL	NULL	NULL	Novel	FFSFFFSFFSSFSFSSSFSS	NULL	NULL	NULL	TrialProc	Relevant	BlockList	1	1	0	289394	10	288904	1	940	289844
TRSEscan	1111	3	60.002	1	-879206835	8/5/2010	11:09:59	2	BlockProc	SessionList	2	2	2	17	NULL	NULL	NULL	NULL	17	3	39	Scenes	NULL	NULL	NULL	Both	2	6390	0	300794	10	294504	0	NULL	NULL	scene/s_251.bmp	NULL	NULL	NULL	NULL	NULL	NULL	Repeat	FFSFFFSFFSSFSFSSSFSS	NULL	NULL	NULL	TrialProc	Relevant	BlockList	0	2	0	294394	10	293904	1	1068	294972
TRSEscan	1111	3	60.002	1	-879206835	8/5/2010	11:09:59	2	BlockProc	SessionList	2	2	2	18	NULL	NULL	NULL	NULL	18	3	40	Scenes	NULL	NULL	NULL	Both	2	2390	0	303794	10	301504	0	NULL	NULL	scene/s_251.bmp	NULL	NULL	NULL	NULL	NULL	NULL	Repeat	FFSFFFSFFSSFSFSSSFSS	NULL	NULL	NULL	TrialProc	Relevant	BlockList	1	2	0	301394	10	300904	2	771	301675
TRSEscan	1111	3	60.002	1	-879206835	8/5/2010	11:09:59	2	BlockProc	SessionList	2	2	2	19	NULL	NULL	NULL	NULL	19	3	41	Faces	NULL	NULL	NULL	Both	2	2390	0	306794	10	304504	3	NULL	NULL	face/m_075.bmp	NULL	NULL	NULL	NULL	NULL	NULL	Repeat	FFSFFFSFFSSFSFSSSFSS	NULL	NULL	NULL	TrialProc	Relevant	BlockList	0	2	0	304394	10	303904	1	827	304731
TRSEscan	1111	3	60.002	1	-879206835	8/5/2010	11:09:59	2	BlockProc	SessionList	2	2	2	20	NULL	NULL	NULL	NULL	20	3	42	Scenes	NULL	NULL	NULL	Both	1	4390	0	311794	10	307504	1	NULL	NULL	scene/s_036.bmp	NULL	NULL	NULL	NULL	NULL	NULL	Novel	FFSFFFSFFSSFSFSSSFSS	NULL	NULL	NULL	TrialProc	Relevant	BlockList	1	1	0	307394	10	306904	1	955	307859
TRSEscan	1111	3	60.002	1	-879206835	8/5/2010	11:09:59	2	BlockProc	SessionList	2	2	2	21	NULL	NULL	NULL	NULL	21	3	43	Scenes	NULL	NULL	NULL	Both	2	6390	0	318793	10	312503	0	NULL	NULL	scene/s_036.bmp	NULL	NULL	NULL	NULL	NULL	NULL	Repeat	FFSFFFSFFSSFSFSSSFSS	NULL	NULL	NULL	TrialProc	Relevant	BlockList	1	2	0	312393	9	311903	2	692	312595
TRSEscan	1111	3	60.002	1	-879206835	8/5/2010	11:09:59	2	BlockProc	SessionList	2	2	2	22	NULL	NULL	NULL	NULL	22	3	44		NULL	NULL	NULL	Both			NULL	NULL	NULL	NULL		333793	331903		NULL	NULL	NULL	NULL	NULL	NULL			NULL	NULL	NULL	FeedbackProc		BlockList	NULL	NULL	NULL	NULL	NULL	NULL	NULL	NULL	NULL
TRSEscan	1111	3	60.002	1	-879206835	8/5/2010	11:09:59	3	BlockProc	SessionList	2	2	3	1	-999999	338739	10	333903	1	4	45		1	2	1353	Faces			NULL	NULL	NULL	NULL		NULL	NULL		352002	1	341120	0	352993	352003			0	354892	353002	InstrProc		BlockList	NULL	NULL	NULL	NULL	NULL	NULL	NULL	NULL	NULL
TRSEscan	1111	3	60.002	1	-879206835	8/5/2010	11:09:59	3	BlockProc	SessionList	2	2	3	2	NULL	NULL	NULL	NULL	2	4	46	Faces	NULL	NULL	NULL	Faces	1	4390	0	359892	10	355602	0	NULL	NULL	face/m_065.bmp	NULL	NULL	NULL	NULL	NULL	NULL	Novel	FFSFFFSFFSSFSFSSSFSS	NULL	NULL	NULL	TrialProc	Relevant	BlockList	1	1	0	355492	10	355002	1	816	355818
TRSEscan	1111	3	60.002	1	-879206835	8/5/2010	11:09:59	3	BlockProc	SessionList	2	2	3	3	NULL	NULL	NULL	NULL	3	4	47	Faces	NULL	NULL	NULL	Faces	1	2390	0	362892	10	360602	0	NULL	NULL	face/f_022.bmp	NULL	NULL	NULL	NULL	NULL	NULL	Novel	FFSFFFSFFSSFSFSSSFSS	NULL	NULL	NULL	TrialProc	Relevant	BlockList	1	1	0	360492	10	360002	1	992	360994
TRSEscan	1111	3	60.002	1	-879206835	8/5/2010	11:09:59	3	BlockProc	SessionList	2	2	3	4	NULL	NULL	NULL	NULL	4	4	48	Scenes	NULL	NULL	NULL	Faces	1	2390	0	365892	10	363602	2	NULL	NULL	scene/s_311.bmp	NULL	NULL	NULL	NULL	NULL	NULL	Novel	FFSFFFSFFSSFSFSSSFSS	NULL	NULL	NULL	TrialProc	Irrelevant	BlockList	1	1	0	363492	10	363002	1	888	363890
TRSEscan	1111	3	60.002	1	-879206835	8/5/2010	11:09:59	3	BlockProc	SessionList	2	2	3	5	NULL	NULL	NULL	NULL	5	4	49	Faces	NULL	NULL	NULL	Faces	1	6390	0	372892	10	366602	1	NULL	NULL	face/f_008.bmp	NULL	NULL	NULL	NULL	NULL	NULL	Novel	FFSFFFSFFSSFSFSSSFSS	NULL	NULL	NULL	TrialProc	Relevant	BlockList	1	1	0	366492	10	366002	1	888	366890
TRSEscan	1111	3	60.002	1	-879206835	8/5/2010	11:09:59	3	BlockProc	SessionList	2	2	3	6	NULL	NULL	NULL	NULL	6	4	50	Faces	NULL	NULL	NULL	Faces	2	4390	0	377892	10	373602	0	NULL	NULL	face/f_008.bmp	NULL	NULL	NULL	NULL	NULL	NULL	Repeat	FFSFFFSFFSSFSFSSSFSS	NULL	NULL	NULL	TrialProc	Relevant	BlockList	1	2	0	373492	10	373002	2	704	373706
TRSEscan	1111	3	60.002	1	-879206835	8/5/2010	11:09:59	3	BlockProc	SessionList	2	2	3	7	NULL	NULL	NULL	NULL	7	4	51	Faces	NULL	NULL	NULL	Faces	1	6390	0	384892	10	378602	0	NULL	NULL	face/f_035.bmp	NULL	NULL	NULL	NULL	NULL	NULL	Novel	FFSFFFSFFSSFSFSSSFSS	NULL	NULL	NULL	TrialProc	Relevant	BlockList	1	1	0	378492	10	378002	1	784	378786
TRSEscan	1111	3	60.002	1	-879206835	8/5/2010	11:09:59	3	BlockProc	SessionList	2	2	3	8	NULL	NULL	NULL	NULL	8	4	52	Scenes	NULL	NULL	NULL	Faces	1	2390	0	387892	10	385602	3	NULL	NULL	scene/s_389.bmp	NULL	NULL	NULL	NULL	NULL	NULL	Novel	FFSFFFSFFSSFSFSSSFSS	NULL	NULL	NULL	TrialProc	Irrelevant	BlockList	1	1	0	385492	10	385002	1	671	385673
TRSEscan	1111	3	60.002	1	-879206835	8/5/2010	11:09:59	3	BlockProc	SessionList	2	2	3	9	NULL	NULL	NULL	NULL	9	4	53	Faces	NULL	NULL	NULL	Faces	1	4390	0	392892	10	388602	1	NULL	NULL	face/m_121.bmp	NULL	NULL	NULL	NULL	NULL	NULL	Novel	FFSFFFSFFSSFSFSSSFSS	NULL	NULL	NULL	TrialProc	Relevant	BlockList	1	1	0	388492	10	388002	1	655	388657
TRSEscan	1111	3	60.002	1	-879206835	8/5/2010	11:09:59	3	BlockProc	SessionList	2	2	3	10	NULL	NULL	NULL	NULL	10	4	54	Faces	NULL	NULL	NULL	Faces	2	6390	0	399891	10	393601	0	NULL	NULL	face/m_121.bmp	NULL	NULL	NULL	NULL	NULL	NULL	Repeat	FFSFFFSFFSSFSFSSSFSS	NULL	NULL	NULL	TrialProc	Relevant	BlockList	1	2	0	393491	9	393001	2	744	393745
TRSEscan	1111	3	60.002	1	-879206835	8/5/2010	11:09:59	3	BlockProc	SessionList	2	2	3	11	NULL	NULL	NULL	NULL	11	4	55	Scenes	NULL	NULL	NULL	Faces	1	4390	0	404891	10	400601	2	NULL	NULL	scene/s_177.bmp	NULL	NULL	NULL	NULL	NULL	NULL	Novel	FFSFFFSFFSSFSFSSSFSS	NULL	NULL	NULL	TrialProc	Irrelevant	BlockList	1	1	0	400491	10	400001	1	632	400633
TRSEscan	1111	3	60.002	1	-879206835	8/5/2010	11:09:59	3	BlockProc	SessionList	2	2	3	12	NULL	NULL	NULL	NULL	12	4	56	Scenes	NULL	NULL	NULL	Faces	1	2390	0	407891	10	405601	0	NULL	NULL	scene/s_177.bmp	NULL	NULL	NULL	NULL	NULL	NULL	Repeat	FFSFFFSFFSSFSFSSSFSS	NULL	NULL	NULL	TrialProc	Irrelevant	BlockList	1	1	0	405491	10	405001	1	664	405665
TRSEscan	1111	3	60.002	1	-879206835	8/5/2010	11:09:59	3	BlockProc	SessionList	2	2	3	13	NULL	NULL	NULL	NULL	13	4	57	Faces	NULL	NULL	NULL	Faces	2	4390	0	412891	10	408601	2	NULL	NULL	face/m_121.bmp	NULL	NULL	NULL	NULL	NULL	NULL	Repeat	FFSFFFSFFSSFSFSSSFSS	NULL	NULL	NULL	TrialProc	Relevant	BlockList	1	2	0	408491	10	408001	2	752	408753
TRSEscan	1111	3	60.002	1	-879206835	8/5/2010	11:09:59	3	BlockProc	SessionList	2	2	3	14	NULL	NULL	NULL	NULL	14	4	58	Scenes	NULL	NULL	NULL	Faces	1	2390	0	415891	10	413601	1	NULL	NULL	scene/s_028.bmp	NULL	NULL	NULL	NULL	NULL	NULL	Novel	FFSFFFSFFSSFSFSSSFSS	NULL	NULL	NULL	TrialProc	Irrelevant	BlockList	1	1	0	413491	10	413001	1	808	413809
TRSEscan	1111	3	60.002	1	-879206835	8/5/2010	11:09:59	3	BlockProc	SessionList	2	2	3	15	NULL	NULL	NULL	NULL	15	4	59	Faces	NULL	NULL	NULL	Faces	1	6390	0	422891	10	416601	1	NULL	NULL	face/f_007.bmp	NULL	NULL	NULL	NULL	NULL	NULL	Novel	FFSFFFSFFSSFSFSSSFSS	NULL	NULL	NULL	TrialProc	Relevant	BlockList	1	1	0	416491	10	416001	1	968	416969
TRSEscan	1111	3	60.002	1	-879206835	8/5/2010	11:09:59	3	BlockProc	SessionList	2	2	3	16	NULL	NULL	NULL	NULL	16	4	60	Scenes	NULL	NULL	NULL	Faces	1	4390	0	427891	10	423601	1	NULL	NULL	scene/s_320.bmp	NULL	NULL	NULL	NULL	NULL	NULL	Novel	FFSFFFSFFSSFSFSSSFSS	NULL	NULL	NULL	TrialProc	Irrelevant	BlockList	1	1	0	423491	10	423001	1	591	423592
TRSEscan	1111	3	60.002	1	-879206835	8/5/2010	11:09:59	3	BlockProc	SessionList	2	2	3	17	NULL	NULL	NULL	NULL	17	4	61	Scenes	NULL	NULL	NULL	Faces	1	6390	0	434891	10	428601	0	NULL	NULL	scene/s_320.bmp	NULL	NULL	NULL	NULL	NULL	NULL	Repeat	FFSFFFSFFSSFSFSSSFSS	NULL	NULL	NULL	TrialProc	Irrelevant	BlockList	1	1	0	428491	10	428001	1	551	428552
TRSEscan	1111	3	60.002	1	-879206835	8/5/2010	11:09:59	3	BlockProc	SessionList	2	2	3	18	NULL	NULL	NULL	NULL	18	4	62	Scenes	NULL	NULL	NULL	Faces	1	2390	0	437890	10	435600	0	NULL	NULL	scene/s_320.bmp	NULL	NULL	NULL	NULL	NULL	NULL	Repeat	FFSFFFSFFSSFSFSSSFSS	NULL	NULL	NULL	TrialProc	Irrelevant	BlockList	1	1	0	435490	9	435000	1	528	435528
TRSEscan	1111	3	60.002	1	-879206835	8/5/2010	11:09:59	3	BlockProc	SessionList	2	2	3	19	NULL	NULL	NULL	NULL	19	4	63	Faces	NULL	NULL	NULL	Faces	2	2390	0	440890	10	438600	3	NULL	NULL	face/f_007.bmp	NULL	NULL	NULL	NULL	NULL	NULL	Repeat	FFSFFFSFFSSFSFSSSFSS	NULL	NULL	NULL	TrialProc	Relevant	BlockList	1	2	0	438490	10	438000	2	640	438640
TRSEscan	1111	3	60.002	1	-879206835	8/5/2010	11:09:59	3	BlockProc	SessionList	2	2	3	20	NULL	NULL	NULL	NULL	20	4	64	Scenes	NULL	NULL	NULL	Faces	1	4390	0	445890	10	441600	1	NULL	NULL	scene/s_401.bmp	NULL	NULL	NULL	NULL	NULL	NULL	Novel	FFSFFFSFFSSFSFSSSFSS	NULL	NULL	NULL	TrialProc	Irrelevant	BlockList	1	1	0	441490	10	441000	1	976	441976
TRSEscan	1111	3	60.002	1	-879206835	8/5/2010	11:09:59	3	BlockProc	SessionList	2	2	3	21	NULL	NULL	NULL	NULL	21	4	65	Scenes	NULL	NULL	NULL	Faces	1	6390	0	452890	10	446600	0	NULL	NULL	scene/s_401.bmp	NULL	NULL	NULL	NULL	NULL	NULL	Repeat	FFSFFFSFFSSFSFSSSFSS	NULL	NULL	NULL	TrialProc	Irrelevant	BlockList	1	1	0	446490	10	446000	1	504	446504
TRSEscan	1111	3	60.002	1	-879206835	8/5/2010	11:09:59	3	BlockProc	SessionList	2	2	3	22	NULL	NULL	NULL	NULL	22	4	66		NULL	NULL	NULL	Faces			NULL	NULL	NULL	NULL		467890	466000		NULL	NULL	NULL	NULL	NULL	NULL			NULL	NULL	NULL	FeedbackProc		BlockList	NULL	NULL	NULL	NULL	NULL	NULL	NULL	NULL	NULL
TRSEscan	1111	3	60.002	1	-879206835	8/5/2010	11:09:59	4	BlockProc	SessionList	2	2	4	1	-999999	471583	10	468000	1	5	67		1	2	1104	Scenes			NULL	NULL	NULL	NULL		NULL	NULL		486575	1	473717	0	487572	486582			0	489472	487582	InstrProc		BlockList	NULL	NULL	NULL	NULL	NULL	NULL	NULL	NULL	NULL
TRSEscan	1111	3	60.002	1	-879206835	8/5/2010	11:09:59	4	BlockProc	SessionList	2	2	4	2	NULL	NULL	NULL	NULL	2	5	68	Faces	NULL	NULL	NULL	Scenes	1	4390	0	494472	10	490182	0	NULL	NULL	face/m_118.bmp	NULL	NULL	NULL	NULL	NULL	NULL	Novel	FFSFFFSFFSSFSFSSSFSS	NULL	NULL	NULL	TrialProc	Irrelevant	BlockList	1	1	0	490072	10	489582	1	673	490255
TRSEscan	1111	3	60.002	1	-879206835	8/5/2010	11:09:59	4	BlockProc	SessionList	2	2	4	3	NULL	NULL	NULL	NULL	3	5	69	Faces	NULL	NULL	NULL	Scenes	1	2390	0	497472	10	495182	0	NULL	NULL	face/f_132.bmp	NULL	NULL	NULL	NULL	NULL	NULL	Novel	FFSFFFSFFSSFSFSSSFSS	NULL	NULL	NULL	TrialProc	Irrelevant	BlockList	1	1	0	495072	10	494582	1	817	495399
TRSEscan	1111	3	60.002	1	-879206835	8/5/2010	11:09:59	4	BlockProc	SessionList	2	2	4	4	NULL	NULL	NULL	NULL	4	5	70	Scenes	NULL	NULL	NULL	Scenes	1	2390	0	500472	10	498182	2	NULL	NULL	scene/s_064.bmp	NULL	NULL	NULL	NULL	NULL	NULL	Novel	FFSFFFSFFSSFSFSSSFSS	NULL	NULL	NULL	TrialProc	Relevant	BlockList	1	1	0	498072	10	497582	1	737	498319
TRSEscan	1111	3	60.002	1	-879206835	8/5/2010	11:09:59	4	BlockProc	SessionList	2	2	4	5	NULL	NULL	NULL	NULL	5	5	71	Faces	NULL	NULL	NULL	Scenes	1	6390	0	507472	10	501182	1	NULL	NULL	face/f_017.bmp	NULL	NULL	NULL	NULL	NULL	NULL	Novel	FFSFFFSFFSSFSFSSSFSS	NULL	NULL	NULL	TrialProc	Irrelevant	BlockList	1	1	0	501072	10	500582	1	697	501279
TRSEscan	1111	3	60.002	1	-879206835	8/5/2010	11:09:59	4	BlockProc	SessionList	2	2	4	6	NULL	NULL	NULL	NULL	6	5	72	Faces	NULL	NULL	NULL	Scenes	1	4390	0	512472	10	508182	0	NULL	NULL	face/f_017.bmp	NULL	NULL	NULL	NULL	NULL	NULL	Repeat	FFSFFFSFFSSFSFSSSFSS	NULL	NULL	NULL	TrialProc	Irrelevant	BlockList	1	1	0	508072	10	507582	1	544	508126
TRSEscan	1111	3	60.002	1	-879206835	8/5/2010	11:09:59	4	BlockProc	SessionList	2	2	4	7	NULL	NULL	NULL	NULL	7	5	73	Faces	NULL	NULL	NULL	Scenes	1	6390	0	519472	10	513182	0	NULL	NULL	face/m_110.bmp	NULL	NULL	NULL	NULL	NULL	NULL	Novel	FFSFFFSFFSSFSFSSSFSS	NULL	NULL	NULL	TrialProc	Irrelevant	BlockList	1	1	0	513072	10	512582	1	520	513102
TRSEscan	1111	3	60.002	1	-879206835	8/5/2010	11:09:59	4	BlockProc	SessionList	2	2	4	8	NULL	NULL	NULL	NULL	8	5	74	Scenes	NULL	NULL	NULL	Scenes	1	2390	0	522472	10	520182	3	NULL	NULL	scene/s_289.bmp	NULL	NULL	NULL	NULL	NULL	NULL	Novel	FFSFFFSFFSSFSFSSSFSS	NULL	NULL	NULL	TrialProc	Relevant	BlockList	1	1	0	520072	10	519582	1	768	520350
TRSEscan	1111	3	60.002	1	-879206835	8/5/2010	11:09:59	4	BlockProc	SessionList	2	2	4	9	NULL	NULL	NULL	NULL	9	5	75	Faces	NULL	NULL	NULL	Scenes	1	4390	0	527472	10	523182	1	NULL	NULL	face/m_001.bmp	NULL	NULL	NULL	NULL	NULL	NULL	Novel	FFSFFFSFFSSFSFSSSFSS	NULL	NULL	NULL	TrialProc	Irrelevant	BlockList	1	1	0	523072	10	522582	1	480	523062
TRSEscan	1111	3	60.002	1	-879206835	8/5/2010	11:09:59	4	BlockProc	SessionList	2	2	4	10	NULL	NULL	NULL	NULL	10	5	76	Faces	NULL	NULL	NULL	Scenes	1	6390	0	534471	10	528181	0	NULL	NULL	face/m_001.bmp	NULL	NULL	NULL	NULL	NULL	NULL	Repeat	FFSFFFSFFSSFSFSSSFSS	NULL	NULL	NULL	TrialProc	Irrelevant	BlockList	1	1	0	528071	9	527581	1	497	528078
TRSEscan	1111	3	60.002	1	-879206835	8/5/2010	11:09:59	4	BlockProc	SessionList	2	2	4	11	NULL	NULL	NULL	NULL	11	5	77	Scenes	NULL	NULL	NULL	Scenes	1	4390	0	539471	10	535181	2	NULL	NULL	scene/s_259.bmp	NULL	NULL	NULL	NULL	NULL	NULL	Novel	FFSFFFSFFSSFSFSSSFSS	NULL	NULL	NULL	TrialProc	Relevant	BlockList	1	1	0	535071	10	534581	1	705	535286
TRSEscan	1111	3	60.002	1	-879206835	8/5/2010	11:09:59	4	BlockProc	SessionList	2	2	4	12	NULL	NULL	NULL	NULL	12	5	78	Scenes	NULL	NULL	NULL	Scenes	2	2390	0	542471	10	540181	0	NULL	NULL	scene/s_259.bmp	NULL	NULL	NULL	NULL	NULL	NULL	Repeat	FFSFFFSFFSSFSFSSSFSS	NULL	NULL	NULL	TrialProc	Relevant	BlockList	1	2	0	540071	10	539581	2	609	540190
TRSEscan	1111	3	60.002	1	-879206835	8/5/2010	11:09:59	4	BlockProc	SessionList	2	2	4	13	NULL	NULL	NULL	NULL	13	5	79	Faces	NULL	NULL	NULL	Scenes	1	4390	0	547471	10	543181	2	NULL	NULL	face/m_001.bmp	NULL	NULL	NULL	NULL	NULL	NULL	Repeat	FFSFFFSFFSSFSFSSSFSS	NULL	NULL	NULL	TrialProc	Irrelevant	BlockList	1	1	0	543071	10	542581	1	569	543150
TRSEscan	1111	3	60.002	1	-879206835	8/5/2010	11:09:59	4	BlockProc	SessionList	2	2	4	14	NULL	NULL	NULL	NULL	14	5	80	Scenes	NULL	NULL	NULL	Scenes	1	2390	0	550471	10	548181	1	NULL	NULL	scene/s_222.bmp	NULL	NULL	NULL	NULL	NULL	NULL	Novel	FFSFFFSFFSSFSFSSSFSS	NULL	NULL	NULL	TrialProc	Relevant	BlockList	1	1	0	548071	10	547581	1	608	548189
TRSEscan	1111	3	60.002	1	-879206835	8/5/2010	11:09:59	4	BlockProc	SessionList	2	2	4	15	NULL	NULL	NULL	NULL	15	5	81	Faces	NULL	NULL	NULL	Scenes	1	6390	0	557471	10	551181	1	NULL	NULL	face/f_094.bmp	NULL	NULL	NULL	NULL	NULL	NULL	Novel	FFSFFFSFFSSFSFSSSFSS	NULL	NULL	NULL	TrialProc	Irrelevant	BlockList	1	1	0	551071	10	550581	1	568	551149
TRSEscan	1111	3	60.002	1	-879206835	8/5/2010	11:09:59	4	BlockProc	SessionList	2	2	4	16	NULL	NULL	NULL	NULL	16	5	82	Scenes	NULL	NULL	NULL	Scenes	1	4390	0	562471	10	558181	1	NULL	NULL	scene/s_284.bmp	NULL	NULL	NULL	NULL	NULL	NULL	Novel	FFSFFFSFFSSFSFSSSFSS	NULL	NULL	NULL	TrialProc	Relevant	BlockList	1	1	0	558071	10	557581	1	528	558109
TRSEscan	1111	3	60.002	1	-879206835	8/5/2010	11:09:59	4	BlockProc	SessionList	2	2	4	17	NULL	NULL	NULL	NULL	17	5	83	Scenes	NULL	NULL	NULL	Scenes	2	6390	0	569471	10	563181	0	NULL	NULL	scene/s_284.bmp	NULL	NULL	NULL	NULL	NULL	NULL	Repeat	FFSFFFSFFSSFSFSSSFSS	NULL	NULL	NULL	TrialProc	Relevant	BlockList	1	2	0	563071	10	562581	2	728	563309
TRSEscan	1111	3	60.002	1	-879206835	8/5/2010	11:09:59	4	BlockProc	SessionList	2	2	4	18	NULL	NULL	NULL	NULL	18	5	84	Scenes	NULL	NULL	NULL	Scenes	2	2390	0	572470	10	570180	0	NULL	NULL	scene/s_284.bmp	NULL	NULL	NULL	NULL	NULL	NULL	Repeat	FFSFFFSFFSSFSFSSSFSS	NULL	NULL	NULL	TrialProc	Relevant	BlockList	1	2	0	570070	9	569580	2	729	570309
TRSEscan	1111	3	60.002	1	-879206835	8/5/2010	11:09:59	4	BlockProc	SessionList	2	2	4	19	NULL	NULL	NULL	NULL	19	5	85	Faces	NULL	NULL	NULL	Scenes	1	2390	0	575470	10	573180	3	NULL	NULL	face/f_094.bmp	NULL	NULL	NULL	NULL	NULL	NULL	Repeat	FFSFFFSFFSSFSFSSSFSS	NULL	NULL	NULL	TrialProc	Irrelevant	BlockList	1	1	0	573070	10	572580	1	577	573157
TRSEscan	1111	3	60.002	1	-879206835	8/5/2010	11:09:59	4	BlockProc	SessionList	2	2	4	20	NULL	NULL	NULL	NULL	20	5	86	Scenes	NULL	NULL	NULL	Scenes	1	4390	0	580470	10	576180	1	NULL	NULL	scene/s_204.bmp	NULL	NULL	NULL	NULL	NULL	NULL	Novel	FFSFFFSFFSSFSFSSSFSS	NULL	NULL	NULL	TrialProc	Relevant	BlockList	1	1	0	576070	10	575580	1	977	576557
TRSEscan	1111	3	60.002	1	-879206835	8/5/2010	11:09:59	4	BlockProc	SessionList	2	2	4	21	NULL	NULL	NULL	NULL	21	5	87	Scenes	NULL	NULL	NULL	Scenes	2	6390	0	587470	10	581180	0	NULL	NULL	scene/s_204.bmp	NULL	NULL	NULL	NULL	NULL	NULL	Repeat	FFSFFFSFFSSFSFSSSFSS	NULL	NULL	NULL	TrialProc	Relevant	BlockList	1	2	0	581070	10	580580	2	713	581293
TRSEscan	1111	3	60.002	1	-879206835	8/5/2010	11:09:59	4	BlockProc	SessionList	2	2	4	22	NULL	NULL	NULL	NULL	22	5	88		NULL	NULL	NULL	Scenes			NULL	NULL	NULL	NULL		602470	600580		NULL	NULL	NULL	NULL	NULL	NULL			NULL	NULL	NULL	FeedbackProc		BlockList	NULL	NULL	NULL	NULL	NULL	NULL	NULL	NULL	NULL
TRSEscan	1111	5	60.002	1	-737656259	8/5/2010	11:32:07	1	BlockProc	SessionList	2	2	1	1	-999999	33284	2	28565	1	2	1		1	2	667	Faces			NULL	NULL	NULL	NULL		NULL	NULL		42740	16	34981	0	43737	42747			0	45637	43747	InstrProc		BlockList	NULL	NULL	NULL	NULL	NULL	NULL	NULL	NULL	NULL
TRSEscan	1111	5	60.002	1	-737656259	8/5/2010	11:32:07	1	BlockProc	SessionList	2	2	1	2	NULL	NULL	NULL	NULL	2	2	2	Scenes	NULL	NULL	NULL	Faces	1	4390	0	50637	10	46347	0	NULL	NULL	scene/s_366.bmp	NULL	NULL	NULL	NULL	NULL	NULL	Novel	SSFSFFSSFFFSFFFSSSFS	NULL	NULL	NULL	TrialProc	Irrelevant	BlockList	1	1	0	46237	10	45747	1	993	46740
TRSEscan	1111	5	60.002	1	-737656259	8/5/2010	11:32:07	1	BlockProc	SessionList	2	2	1	3	NULL	NULL	NULL	NULL	3	2	3	Scenes	NULL	NULL	NULL	Faces	1	2390	0	53637	10	51347	0	NULL	NULL	scene/s_366.bmp	NULL	NULL	NULL	NULL	NULL	NULL	Repeat	SSFSFFSSFFFSFFFSSSFS	NULL	NULL	NULL	TrialProc	Irrelevant	BlockList	1	1	0	51237	10	50747	1	657	51404
TRSEscan	1111	5	60.002	1	-737656259	8/5/2010	11:32:07	1	BlockProc	SessionList	2	2	1	4	NULL	NULL	NULL	NULL	4	2	4	Faces	NULL	NULL	NULL	Faces	1	6390	0	60637	10	54347	2	NULL	NULL	face/m_039.bmp	NULL	NULL	NULL	NULL	NULL	NULL	Novel	SSFSFFSSFFFSFFFSSSFS	NULL	NULL	NULL	TrialProc	Relevant	BlockList	1	1	0	54237	10	53747	1	705	54452
TRSEscan	1111	5	60.002	1	-737656259	8/5/2010	11:32:07	1	BlockProc	SessionList	2	2	1	5	NULL	NULL	NULL	NULL	5	2	5	Scenes	NULL	NULL	NULL	Faces	1	4390	0	65637	10	61347	1	NULL	NULL	scene/s_239.bmp	NULL	NULL	NULL	NULL	NULL	NULL	Novel	SSFSFFSSFFFSFFFSSSFS	NULL	NULL	NULL	TrialProc	Irrelevant	BlockList	1	1	0	61237	10	60747	1	585	61332
TRSEscan	1111	5	60.002	1	-737656259	8/5/2010	11:32:07	1	BlockProc	SessionList	2	2	1	6	NULL	NULL	NULL	NULL	6	2	6	Faces	NULL	NULL	NULL	Faces	2	2390	0	68636	10	66346	1	NULL	NULL	face/m_039.bmp	NULL	NULL	NULL	NULL	NULL	NULL	Repeat	SSFSFFSSFFFSFFFSSSFS	NULL	NULL	NULL	TrialProc	Relevant	BlockList	1	2	0	66236	9	65746	2	673	66419
TRSEscan	1111	5	60.002	1	-737656259	8/5/2010	11:32:07	1	BlockProc	SessionList	2	2	1	7	NULL	NULL	NULL	NULL	7	2	7	Faces	NULL	NULL	NULL	Faces	1	4390	0	73636	10	69346	0	NULL	NULL	face/m_143.bmp	NULL	NULL	NULL	NULL	NULL	NULL	Novel	SSFSFFSSFFFSFFFSSSFS	NULL	NULL	NULL	TrialProc	Relevant	BlockList	1	1	0	69236	10	68746	1	809	69555
TRSEscan	1111	5	60.002	1	-737656259	8/5/2010	11:32:07	1	BlockProc	SessionList	2	2	1	8	NULL	NULL	NULL	NULL	8	2	8	Scenes	NULL	NULL	NULL	Faces	1	2390	0	76636	10	74346	2	NULL	NULL	scene/s_225.bmp	NULL	NULL	NULL	NULL	NULL	NULL	Novel	SSFSFFSSFFFSFFFSSSFS	NULL	NULL	NULL	TrialProc	Irrelevant	BlockList	1	1	0	74236	10	73746	1	849	74595
TRSEscan	1111	5	60.002	1	-737656259	8/5/2010	11:32:07	1	BlockProc	SessionList	2	2	1	9	NULL	NULL	NULL	NULL	9	2	9	Scenes	NULL	NULL	NULL	Faces	1	6390	0	83636	10	77346	0	NULL	NULL	scene/s_144.bmp	NULL	NULL	NULL	NULL	NULL	NULL	Novel	SSFSFFSSFFFSFFFSSSFS	NULL	NULL	NULL	TrialProc	Irrelevant	BlockList	1	1	0	77236	10	76746	1	513	77259
TRSEscan	1111	5	60.002	1	-737656259	8/5/2010	11:32:07	1	BlockProc	SessionList	2	2	1	10	NULL	NULL	NULL	NULL	10	2	10	Faces	NULL	NULL	NULL	Faces	1	2390	0	86636	10	84346	2	NULL	NULL	face/m_017.bmp	NULL	NULL	NULL	NULL	NULL	NULL	Novel	SSFSFFSSFFFSFFFSSSFS	NULL	NULL	NULL	TrialProc	Relevant	BlockList	1	1	0	84236	10	83746	1	841	84587
TRSEscan	1111	5	60.002	1	-737656259	8/5/2010	11:32:07	1	BlockProc	SessionList	2	2	1	11	NULL	NULL	NULL	NULL	11	2	11	Faces	NULL	NULL	NULL	Faces	1	4390	0	91636	10	87346	0	NULL	NULL	face/f_133.bmp	NULL	NULL	NULL	NULL	NULL	NULL	Novel	SSFSFFSSFFFSFFFSSSFS	NULL	NULL	NULL	TrialProc	Relevant	BlockList	1	1	0	87236	10	86746	1	649	87395
TRSEscan	1111	5	60.002	1	-737656259	8/5/2010	11:32:07	1	BlockProc	SessionList	2	2	1	12	NULL	NULL	NULL	NULL	12	2	12	Faces	NULL	NULL	NULL	Faces	2	6390	0	98636	10	92346	0	NULL	NULL	face/f_133.bmp	NULL	NULL	NULL	NULL	NULL	NULL	Repeat	SSFSFFSSFFFSFFFSSSFS	NULL	NULL	NULL	TrialProc	Relevant	BlockList	1	2	0	92236	10	91746	2	745	92491
TRSEscan	1111	5	60.002	1	-737656259	8/5/2010	11:32:07	1	BlockProc	SessionList	2	2	1	13	NULL	NULL	NULL	NULL	13	2	13	Scenes	NULL	NULL	NULL	Faces	1	6390	0	105636	10	99346	3	NULL	NULL	scene/s_144.bmp	NULL	NULL	NULL	NULL	NULL	NULL	Repeat	SSFSFFSSFFFSFFFSSSFS	NULL	NULL	NULL	TrialProc	Irrelevant	BlockList	1	1	0	99236	10	98746	1	561	99307
TRSEscan	1111	5	60.002	1	-737656259	8/5/2010	11:32:07	1	BlockProc	SessionList	2	2	1	14	NULL	NULL	NULL	NULL	14	2	14	Faces	NULL	NULL	NULL	Faces	2	2390	0	108635	10	106345	1	NULL	NULL	face/f_133.bmp	NULL	NULL	NULL	NULL	NULL	NULL	Repeat	SSFSFFSSFFFSFFFSSSFS	NULL	NULL	NULL	TrialProc	Relevant	BlockList	1	2	0	106235	9	105745	2	793	106538
TRSEscan	1111	5	60.002	1	-737656259	8/5/2010	11:32:07	1	BlockProc	SessionList	2	2	1	15	NULL	NULL	NULL	NULL	15	2	15	Faces	NULL	NULL	NULL	Faces	1	4390	0	113635	10	109345	0	NULL	NULL	face/f_080.bmp	NULL	NULL	NULL	NULL	NULL	NULL	Novel	SSFSFFSSFFFSFFFSSSFS	NULL	NULL	NULL	TrialProc	Relevant	BlockList	1	1	0	109235	10	108745	1	617	109362
TRSEscan	1111	5	60.002	1	-737656259	8/5/2010	11:32:07	1	BlockProc	SessionList	2	2	1	16	NULL	NULL	NULL	NULL	16	2	16	Faces	NULL	NULL	NULL	Faces	2	4390	0	118635	10	114345	0	NULL	NULL	face/f_080.bmp	NULL	NULL	NULL	NULL	NULL	NULL	Repeat	SSFSFFSSFFFSFFFSSSFS	NULL	NULL	NULL	TrialProc	Relevant	BlockList	1	2	0	114235	10	113745	2	881	114626
TRSEscan	1111	5	60.002	1	-737656259	8/5/2010	11:32:07	1	BlockProc	SessionList	2	2	1	17	NULL	NULL	NULL	NULL	17	2	17	Scenes	NULL	NULL	NULL	Faces	1	6390	0	125635	10	119345	3	NULL	NULL	scene/s_144.bmp	NULL	NULL	NULL	NULL	NULL	NULL	Repeat	SSFSFFSSFFFSFFFSSSFS	NULL	NULL	NULL	TrialProc	Irrelevant	BlockList	1	1	0	119235	10	118745	1	521	119266
TRSEscan	1111	5	60.002	1	-737656259	8/5/2010	11:32:07	1	BlockProc	SessionList	2	2	1	18	NULL	NULL	NULL	NULL	18	2	18	Scenes	NULL	NULL	NULL	Faces	1	2390	0	128635	10	126345	0	NULL	NULL	scene/s_076.bmp	NULL	NULL	NULL	NULL	NULL	NULL	Novel	SSFSFFSSFFFSFFFSSSFS	NULL	NULL	NULL	TrialProc	Irrelevant	BlockList	1	1	0	126235	10	125745	1	481	126226
TRSEscan	1111	5	60.002	1	-737656259	8/5/2010	11:32:07	1	BlockProc	SessionList	2	2	1	19	NULL	NULL	NULL	NULL	19	2	19	Scenes	NULL	NULL	NULL	Faces	1	2390	0	131635	10	129345	0	NULL	NULL	scene/s_076.bmp	NULL	NULL	NULL	NULL	NULL	NULL	Repeat	SSFSFFSSFFFSFFFSSSFS	NULL	NULL	NULL	TrialProc	Irrelevant	BlockList	1	1	0	129235	10	128745	1	617	129362
TRSEscan	1111	5	60.002	1	-737656259	8/5/2010	11:32:07	1	BlockProc	SessionList	2	2	1	20	NULL	NULL	NULL	NULL	20	2	20	Faces	NULL	NULL	NULL	Faces	1	6390	0	138635	10	132345	3	NULL	NULL	face/f_061.bmp	NULL	NULL	NULL	NULL	NULL	NULL	Novel	SSFSFFSSFFFSFFFSSSFS	NULL	NULL	NULL	TrialProc	Relevant	BlockList	1	1	0	132235	10	131745	1	1041	132786
TRSEscan	1111	5	60.002	1	-737656259	8/5/2010	11:32:07	1	BlockProc	SessionList	2	2	1	21	NULL	NULL	NULL	NULL	21	2	21	Scenes	NULL	NULL	NULL	Faces	1	4390	0	143635	10	139345	1	NULL	NULL	scene/s_160.bmp	NULL	NULL	NULL	NULL	NULL	NULL	Novel	SSFSFFSSFFFSFFFSSSFS	NULL	NULL	NULL	TrialProc	Irrelevant	BlockList	1	1	0	139235	10	138745	1	561	139306
TRSEscan	1111	5	60.002	1	-737656259	8/5/2010	11:32:07	1	BlockProc	SessionList	2	2	1	22	NULL	NULL	NULL	NULL	22	2	22		NULL	NULL	NULL	Faces			NULL	NULL	NULL	NULL		158634	156744		NULL	NULL	NULL	NULL	NULL	NULL			NULL	NULL	NULL	FeedbackProc		BlockList	NULL	NULL	NULL	NULL	NULL	NULL	NULL	NULL	NULL
TRSEscan	1111	5	60.002	1	-737656259	8/5/2010	11:32:07	2	BlockProc	SessionList	2	2	2	1	-999999	161441	10	158744	1	3	23		1	2	821	Scenes			NULL	NULL	NULL	NULL		NULL	NULL		177969	1	163278	0	178967	177977			0	180867	178977	InstrProc		BlockList	NULL	NULL	NULL	NULL	NULL	NULL	NULL	NULL	NULL
TRSEscan	1111	5	60.002	1	-737656259	8/5/2010	11:32:07	2	BlockProc	SessionList	2	2	2	2	NULL	NULL	NULL	NULL	2	3	24	Scenes	NULL	NULL	NULL	Scenes	1	4390	0	185867	10	181577	0	NULL	NULL	scene/s_062.bmp	NULL	NULL	NULL	NULL	NULL	NULL	Novel	SSFSFFSSFFFSFFFSSSFS	NULL	NULL	NULL	TrialProc	Relevant	BlockList	1	1	0	181467	10	180977	1	1176	182153
TRSEscan	1111	5	60.002	1	-737656259	8/5/2010	11:32:07	2	BlockProc	SessionList	2	2	2	3	NULL	NULL	NULL	NULL	3	3	25	Scenes	NULL	NULL	NULL	Scenes	2	2390	0	188867	10	186577	0	NULL	NULL	scene/s_062.bmp	NULL	NULL	NULL	NULL	NULL	NULL	Repeat	SSFSFFSSFFFSFFFSSSFS	NULL	NULL	NULL	TrialProc	Relevant	BlockList	1	2	0	186467	10	185977	2	760	186737
TRSEscan	1111	5	60.002	1	-737656259	8/5/2010	11:32:07	2	BlockProc	SessionList	2	2	2	4	NULL	NULL	NULL	NULL	4	3	26	Faces	NULL	NULL	NULL	Scenes	1	6390	0	195867	10	189577	2	NULL	NULL	face/f_119.bmp	NULL	NULL	NULL	NULL	NULL	NULL	Novel	SSFSFFSSFFFSFFFSSSFS	NULL	NULL	NULL	TrialProc	Irrelevant	BlockList	1	1	0	189467	10	188977	1	719	189696
TRSEscan	1111	5	60.002	1	-737656259	8/5/2010	11:32:07	2	BlockProc	SessionList	2	2	2	5	NULL	NULL	NULL	NULL	5	3	27	Scenes	NULL	NULL	NULL	Scenes	1	4390	0	200867	10	196577	1	NULL	NULL	scene/s_029.bmp	NULL	NULL	NULL	NULL	NULL	NULL	Novel	SSFSFFSSFFFSFFFSSSFS	NULL	NULL	NULL	TrialProc	Relevant	BlockList	1	1	0	196467	10	195977	1	767	196744
TRSEscan	1111	5	60.002	1	-737656259	8/5/2010	11:32:07	2	BlockProc	SessionList	2	2	2	6	NULL	NULL	NULL	NULL	6	3	28	Faces	NULL	NULL	NULL	Scenes	1	2390	0	203866	10	201576	1	NULL	NULL	face/f_119.bmp	NULL	NULL	NULL	NULL	NULL	NULL	Repeat	SSFSFFSSFFFSFFFSSSFS	NULL	NULL	NULL	TrialProc	Irrelevant	BlockList	1	1	0	201466	9	200976	1	688	201664
TRSEscan	1111	5	60.002	1	-737656259	8/5/2010	11:32:07	2	BlockProc	SessionList	2	2	2	7	NULL	NULL	NULL	NULL	7	3	29	Faces	NULL	NULL	NULL	Scenes	1	4390	0	208866	10	204576	0	NULL	NULL	face/m_015.bmp	NULL	NULL	NULL	NULL	NULL	NULL	Novel	SSFSFFSSFFFSFFFSSSFS	NULL	NULL	NULL	TrialProc	Irrelevant	BlockList	1	1	0	204466	10	203976	1	632	204608
TRSEscan	1111	5	60.002	1	-737656259	8/5/2010	11:32:07	2	BlockProc	SessionList	2	2	2	8	NULL	NULL	NULL	NULL	8	3	30	Scenes	NULL	NULL	NULL	Scenes	1	2390	0	211866	10	209576	2	NULL	NULL	scene/s_294.bmp	NULL	NULL	NULL	NULL	NULL	NULL	Novel	SSFSFFSSFFFSFFFSSSFS	NULL	NULL	NULL	TrialProc	Relevant	BlockList	1	1	0	209466	10	208976	1	800	209776
TRSEscan	1111	5	60.002	1	-737656259	8/5/2010	11:32:07	2	BlockProc	SessionList	2	2	2	9	NULL	NULL	NULL	NULL	9	3	31	Scenes	NULL	NULL	NULL	Scenes	1	6390	0	218866	10	212576	0	NULL	NULL	scene/s_061.bmp	NULL	NULL	NULL	NULL	NULL	NULL	Novel	SSFSFFSSFFFSFFFSSSFS	NULL	NULL	NULL	TrialProc	Relevant	BlockList	1	1	0	212466	10	211976	1	584	212560
TRSEscan	1111	5	60.002	1	-737656259	8/5/2010	11:32:07	2	BlockProc	SessionList	2	2	2	10	NULL	NULL	NULL	NULL	10	3	32	Faces	NULL	NULL	NULL	Scenes	1	2390	0	221866	10	219576	2	NULL	NULL	face/f_057.bmp	NULL	NULL	NULL	NULL	NULL	NULL	Novel	SSFSFFSSFFFSFFFSSSFS	NULL	NULL	NULL	TrialProc	Irrelevant	BlockList	1	1	0	219466	10	218976	1	520	219496
TRSEscan	1111	5	60.002	1	-737656259	8/5/2010	11:32:07	2	BlockProc	SessionList	2	2	2	11	NULL	NULL	NULL	NULL	11	3	33	Faces	NULL	NULL	NULL	Scenes	1	4390	0	226866	10	222576	0	NULL	NULL	face/f_001.bmp	NULL	NULL	NULL	NULL	NULL	NULL	Novel	SSFSFFSSFFFSFFFSSSFS	NULL	NULL	NULL	TrialProc	Irrelevant	BlockList	1	1	0	222466	10	221976	1	528	222504
TRSEscan	1111	5	60.002	1	-737656259	8/5/2010	11:32:07	2	BlockProc	SessionList	2	2	2	12	NULL	NULL	NULL	NULL	12	3	34	Faces	NULL	NULL	NULL	Scenes	1	6390	0	233866	10	227576	0	NULL	NULL	face/f_001.bmp	NULL	NULL	NULL	NULL	NULL	NULL	Repeat	SSFSFFSSFFFSFFFSSSFS	NULL	NULL	NULL	TrialProc	Irrelevant	BlockList	1	1	0	227466	10	226976	1	439	227415
TRSEscan	1111	5	60.002	1	-737656259	8/5/2010	11:32:07	2	BlockProc	SessionList	2	2	2	13	NULL	NULL	NULL	NULL	13	3	35	Scenes	NULL	NULL	NULL	Scenes	2	6390	0	240866	10	234576	3	NULL	NULL	scene/s_061.bmp	NULL	NULL	NULL	NULL	NULL	NULL	Repeat	SSFSFFSSFFFSFFFSSSFS	NULL	NULL	NULL	TrialProc	Relevant	BlockList	1	2	0	234466	10	233976	2	839	234815
