ExperimentName	Subject	Session	Display.RefreshRate	Group	RandomSeed	SessionDate	SessionTime	Block	Procedure[Block]	Running[Block]	SessionList	SessionList.Cycle	SessionList.Sample	Trial	BlockInstr.OffsetDelay	BlockInstr.OffsetTime	BlockInstr.OnsetDelay	BlockInstr.OnsetTime	BlockList	BlockList.Cycle	BlockList.Sample	Category	Challenge.ACC	Challenge.RESP	Challenge.RT	Condition	CorrResp	Delay	DelayFixation.OffsetDelay	DelayFixation.OffsetTime	DelayFixation.OnsetDelay	DelayFixation.OnsetTime	Distractors	Feedback.OffsetTime	Feedback.OnsetTime	Filename	GetReady.OffsetTime	GetReady.OnsetDelay	GetReady.OnsetTime	Go.OffsetDelay	Go.OffsetTime	Go.OnsetTime	Novelty	Permutation	PostGoFixation.OffsetDelay	PostGoFixation.OffsetTime	PostGoFixation.OnsetTime	Procedure[Trial]	Relevance	Running[Trial]	Stim.ACC	Stim.CRESP	Stim.OffsetDelay	Stim.OffsetTime	Stim.OnsetDelay	Stim.OnsetTime	Stim.RESP	Stim.RT	Stim.RTTime
TRSEscan	1131	1	60.002	1	1024127989	8/10/2010	18:54:21	1	BlockProc	SessionList	2	1	2	1	-999999	100338	10	86612	1	2	1		1	2	3137	Faces			NULL	NULL	NULL	NULL		NULL	NULL		112009	1	104496	0	113001	112011			0	114901	113011	InstrProc		BlockList	NULL	NULL	NULL	NULL	NULL	NULL	NULL	NULL	NULL
TRSEscan	1131	1	60.002	1	1024127989	8/10/2010	18:54:21	1	BlockProc	SessionList	2	1	2	2	NULL	NULL	NULL	NULL	2	2	2	Scenes	NULL	NULL	NULL	Faces	1	4390	0	119901	10	115611	0	NULL	NULL	scene/s_364.bmp	NULL	NULL	NULL	NULL	NULL	NULL	Novel	SFFSFSSSFSSFSSFFFSFF	NULL	NULL	NULL	TrialProc	Irrelevant	BlockList	1	1	0	115501	10	115011	1	718	115729
TRSEscan	1131	1	60.002	1	1024127989	8/10/2010	18:54:21	1	BlockProc	SessionList	2	1	2	3	NULL	NULL	NULL	NULL	3	2	3	Faces	NULL	NULL	NULL	Faces	1	2390	0	122901	10	120611	1	NULL	NULL	face/m_120.bmp	NULL	NULL	NULL	NULL	NULL	NULL	Novel	SFFSFSSSFSSFSSFFFSFF	NULL	NULL	NULL	TrialProc	Relevant	BlockList	1	1	0	120501	10	120011	1	566	120577
TRSEscan	1131	1	60.002	1	1024127989	8/10/2010	18:54:21	1	BlockProc	SessionList	2	1	2	4	NULL	NULL	NULL	NULL	4	2	4	Faces	NULL	NULL	NULL	Faces	1	2390	0	125918	10	123628	0	NULL	NULL	face/m_014.bmp	NULL	NULL	NULL	NULL	NULL	NULL	Novel	SFFSFSSSFSSFSSFFFSFF	NULL	NULL	NULL	TrialProc	Relevant	BlockList	1	1	0	123518	27	123028	1	1173	124201
TRSEscan	1131	1	60.002	1	1024127989	8/10/2010	18:54:21	1	BlockProc	SessionList	2	1	2	5	NULL	NULL	NULL	NULL	5	2	5	Scenes	NULL	NULL	NULL	Faces	1	4390	0	130918	10	126628	2	NULL	NULL	scene/s_200.bmp	NULL	NULL	NULL	NULL	NULL	NULL	Novel	SFFSFSSSFSSFSSFFFSFF	NULL	NULL	NULL	TrialProc	Irrelevant	BlockList	1	1	0	126518	10	126028	1	973	127001
TRSEscan	1131	1	60.002	1	1024127989	8/10/2010	18:54:21	1	BlockProc	SessionList	2	1	2	6	NULL	NULL	NULL	NULL	6	2	6	Faces	NULL	NULL	NULL	Faces	2	6390	0	137918	10	131628	1	NULL	NULL	face/m_014.bmp	NULL	NULL	NULL	NULL	NULL	NULL	Repeat	SFFSFSSSFSSFSSFFFSFF	NULL	NULL	NULL	TrialProc	Relevant	BlockList	1	2	0	131518	10	131028	2	1117	132145
TRSEscan	1131	1	60.002	1	1024127989	8/10/2010	18:54:21	1	BlockProc	SessionList	2	1	2	7	NULL	NULL	NULL	NULL	7	2	7	Scenes	NULL	NULL	NULL	Faces	1	6390	0	144917	10	138627	1	NULL	NULL	scene/s_200.bmp	NULL	NULL	NULL	NULL	NULL	NULL	Repeat	SFFSFSSSFSSFSSFFFSFF	NULL	NULL	NULL	TrialProc	Irrelevant	BlockList	1	1	0	138517	9	138027	1	822	138849
TRSEscan	1131	1	60.002	1	1024127989	8/10/2010	18:54:21	1	BlockProc	SessionList	2	1	2	8	NULL	NULL	NULL	NULL	8	2	8	Scenes	NULL	NULL	NULL	Faces	1	4390	0	149917	10	145627	0	NULL	NULL	scene/s_004.bmp	NULL	NULL	NULL	NULL	NULL	NULL	Novel	SFFSFSSSFSSFSSFFFSFF	NULL	NULL	NULL	TrialProc	Irrelevant	BlockList	1	1	0	145517	10	145027	1	678	145705
TRSEscan	1131	1	60.002	1	1024127989	8/10/2010	18:54:21	1	BlockProc	SessionList	2	1	2	9	NULL	NULL	NULL	NULL	9	2	9	Scenes	NULL	NULL	NULL	Faces	1	2390	0	152917	10	150627	0	NULL	NULL	scene/s_004.bmp	NULL	NULL	NULL	NULL	NULL	NULL	Repeat	SFFSFSSSFSSFSSFFFSFF	NULL	NULL	NULL	TrialProc	Irrelevant	BlockList	1	1	0	150517	10	150027	1	629	150656
TRSEscan	1131	1	60.002	1	1024127989	8/10/2010	18:54:21	1	BlockProc	SessionList	2	1	2	10	NULL	NULL	NULL	NULL	10	2	10	Faces	NULL	NULL	NULL	Faces	1	4390	0	157917	10	153627	3	NULL	NULL	face/f_038.bmp	NULL	NULL	NULL	NULL	NULL	NULL	Novel	SFFSFSSSFSSFSSFFFSFF	NULL	NULL	NULL	TrialProc	Relevant	BlockList	1	1	0	153517	10	153027	1	1021	154048
TRSEscan	1131	1	60.002	1	1024127989	8/10/2010	18:54:21	1	BlockProc	SessionList	2	1	2	11	NULL	NULL	NULL	NULL	11	2	11	Scenes	NULL	NULL	NULL	Faces	1	6390	0	164917	10	158627	1	NULL	NULL	scene/s_004.bmp	NULL	NULL	NULL	NULL	NULL	NULL	Repeat	SFFSFSSSFSSFSSFFFSFF	NULL	NULL	NULL	TrialProc	Irrelevant	BlockList	1	1	0	158517	10	158027	1	653	158680
TRSEscan	1131	1	60.002	1	1024127989	8/10/2010	18:54:21	1	BlockProc	SessionList	2	1	2	12	NULL	NULL	NULL	NULL	12	2	12	Scenes	NULL	NULL	NULL	Faces	1	2390	0	167917	10	165627	0	NULL	NULL	scene/s_020.bmp	NULL	NULL	NULL	NULL	NULL	NULL	Novel	SFFSFSSSFSSFSSFFFSFF	NULL	NULL	NULL	TrialProc	Irrelevant	BlockList	1	1	0	165517	10	165027	1	669	165696
TRSEscan	1131	1	60.002	1	1024127989	8/10/2010	18:54:21	1	BlockProc	SessionList	2	1	2	13	NULL	NULL	NULL	NULL	13	2	13	Faces	NULL	NULL	NULL	Faces	2	4390	0	172917	10	168627	2	NULL	NULL	face/f_038.bmp	NULL	NULL	NULL	NULL	NULL	NULL	Repeat	SFFSFSSSFSSFSSFFFSFF	NULL	NULL	NULL	TrialProc	Relevant	BlockList	1	2	0	168517	10	168027	2	1093	169120
TRSEscan	1131	1	60.002	1	1024127989	8/10/2010	18:54:21	1	BlockProc	SessionList	2	1	2	14	NULL	NULL	NULL	NULL	14	2	14	Scenes	NULL	NULL	NULL	Faces	1	2390	0	175917	10	173627	1	NULL	NULL	scene/s_020.bmp	NULL	NULL	NULL	NULL	NULL	NULL	Repeat	SFFSFSSSFSSFSSFFFSFF	NULL	NULL	NULL	TrialProc	Irrelevant	BlockList	1	1	0	173517	10	173027	1	573	173600
TRSEscan	1131	1	60.002	1	1024127989	8/10/2010	18:54:21	1	BlockProc	SessionList	2	1	2	15	NULL	NULL	NULL	NULL	15	2	15	Scenes	NULL	NULL	NULL	Faces	1	6390	0	182917	10	176627	0	NULL	NULL	scene/s_442.bmp	NULL	NULL	NULL	NULL	NULL	NULL	Novel	SFFSFSSSFSSFSSFFFSFF	NULL	NULL	NULL	TrialProc	Irrelevant	BlockList	1	1	0	176517	10	176027	1	405	176432
TRSEscan	1131	1	60.002	1	1024127989	8/10/2010	18:54:21	1	BlockProc	SessionList	2	1	2	16	NULL	NULL	NULL	NULL	16	2	16	Faces	NULL	NULL	NULL	Faces	2	6390	0	189916	10	183626	2	NULL	NULL	face/f_038.bmp	NULL	NULL	NULL	NULL	NULL	NULL	Repeat	SFFSFSSSFSSFSSFFFSFF	NULL	NULL	NULL	TrialProc	Relevant	BlockList	1	2	0	183516	9	183026	2	1254	184280
TRSEscan	1131	1	60.002	1	1024127989	8/10/2010	18:54:21	1	BlockProc	SessionList	2	1	2	17	NULL	NULL	NULL	NULL	17	2	17	Faces	NULL	NULL	NULL	Faces	1	2390	0	192916	10	190626	0	NULL	NULL	face/f_012.bmp	NULL	NULL	NULL	NULL	NULL	NULL	Novel	SFFSFSSSFSSFSSFFFSFF	NULL	NULL	NULL	TrialProc	Relevant	BlockList	1	1	0	190516	10	190026	1	805	190831
TRSEscan	1131	1	60.002	1	1024127989	8/10/2010	18:54:21	1	BlockProc	SessionList	2	1	2	18	NULL	NULL	NULL	NULL	18	2	18	Faces	NULL	NULL	NULL	Faces	2	4390	0	197916	10	193626	0	NULL	NULL	face/f_012.bmp	NULL	NULL	NULL	NULL	NULL	NULL	Repeat	SFFSFSSSFSSFSSFFFSFF	NULL	NULL	NULL	TrialProc	Relevant	BlockList	1	2	0	193516	10	193026	2	949	193975
TRSEscan	1131	1	60.002	1	1024127989	8/10/2010	18:54:21	1	BlockProc	SessionList	2	1	2	19	NULL	NULL	NULL	NULL	19	2	19	Scenes	NULL	NULL	NULL	Faces	1	2390	0	200916	10	198626	3	NULL	NULL	scene/s_404.bmp	NULL	NULL	NULL	NULL	NULL	NULL	Novel	SFFSFSSSFSSFSSFFFSFF	NULL	NULL	NULL	TrialProc	Irrelevant	BlockList	1	1	0	198516	10	198026	1	525	198551
TRSEscan	1131	1	60.002	1	1024127989	8/10/2010	18:54:21	1	BlockProc	SessionList	2	1	2	20	NULL	NULL	NULL	NULL	20	2	20	Faces	NULL	NULL	NULL	Faces	1	6390	0	207916	10	201626	1	NULL	NULL	face/f_030.bmp	NULL	NULL	NULL	NULL	NULL	NULL	Novel	SFFSFSSSFSSFSSFFFSFF	NULL	NULL	NULL	TrialProc	Relevant	BlockList	1	1	0	201516	10	201026	1	821	201847
TRSEscan	1131	1	60.002	1	1024127989	8/10/2010	18:54:21	1	BlockProc	SessionList	2	1	2	21	NULL	NULL	NULL	NULL	21	2	21	Faces	NULL	NULL	NULL	Faces	1	4390	0	212916	10	208626	0	NULL	NULL	face/m_116.bmp	NULL	NULL	NULL	NULL	NULL	NULL	Novel	SFFSFSSSFSSFSSFFFSFF	NULL	NULL	NULL	TrialProc	Relevant	BlockList	1	1	0	208516	10	208026	1	917	208943
TRSEscan	1131	1	60.002	1	1024127989	8/10/2010	18:54:21	1	BlockProc	SessionList	2	1	2	22	NULL	NULL	NULL	NULL	22	2	22		NULL	NULL	NULL	Faces			NULL	NULL	NULL	NULL		227915	226025		NULL	NULL	NULL	NULL	NULL	NULL			NULL	NULL	NULL	FeedbackProc		BlockList	NULL	NULL	NULL	NULL	NULL	NULL	NULL	NULL	NULL
TRSEscan	1131	1	60.002	1	1024127989	8/10/2010	18:54:21	2	BlockProc	SessionList	2	1	3	1	-999999	231278	10	228025	1	3	23		1	2	1634	Scenes			NULL	NULL	NULL	NULL		NULL	NULL		246486	1	233943	0	247481	246491			0	249381	247491	InstrProc		BlockList	NULL	NULL	NULL	NULL	NULL	NULL	NULL	NULL	NULL
TRSEscan	1131	1	60.002	1	1024127989	8/10/2010	18:54:21	2	BlockProc	SessionList	2	1	3	2	NULL	NULL	NULL	NULL	2	3	24	Scenes	NULL	NULL	NULL	Scenes	1	4390	0	254381	10	250091	0	NULL	NULL	scene/s_325.bmp	NULL	NULL	NULL	NULL	NULL	NULL	Novel	SFFSFSSSFSSFSSFFFSFF	NULL	NULL	NULL	TrialProc	Relevant	BlockList	1	1	0	249981	10	249491	1	355	249846
TRSEscan	1131	1	60.002	1	1024127989	8/10/2010	18:54:21	2	BlockProc	SessionList	2	1	3	3	NULL	NULL	NULL	NULL	3	3	25	Faces	NULL	NULL	NULL	Scenes	1	2390	0	257381	10	255091	1	NULL	NULL	face/f_114.bmp	NULL	NULL	NULL	NULL	NULL	NULL	Novel	SFFSFSSSFSSFSSFFFSFF	NULL	NULL	NULL	TrialProc	Irrelevant	BlockList	0	1	0	254981	10	254491	2	723	255214
TRSEscan	1131	1	60.002	1	1024127989	8/10/2010	18:54:21	2	BlockProc	SessionList	2	1	3	4	NULL	NULL	NULL	NULL	4	3	26	Faces	NULL	NULL	NULL	Scenes	1	2390	0	260381	10	258091	0	NULL	NULL	face/f_036.bmp	NULL	NULL	NULL	NULL	NULL	NULL	Novel	SFFSFSSSFSSFSSFFFSFF	NULL	NULL	NULL	TrialProc	Irrelevant	BlockList	1	1	0	257981	10	257491	1	619	258110
TRSEscan	1131	1	60.002	1	1024127989	8/10/2010	18:54:21	2	BlockProc	SessionList	2	1	3	5	NULL	NULL	NULL	NULL	5	3	27	Scenes	NULL	NULL	NULL	Scenes	1	4390	0	265381	10	261091	2	NULL	NULL	scene/s_189.bmp	NULL	NULL	NULL	NULL	NULL	NULL	Novel	SFFSFSSSFSSFSSFFFSFF	NULL	NULL	NULL	TrialProc	Relevant	BlockList	1	1	0	260981	10	260491	1	987	261478
TRSEscan	1131	1	60.002	1	1024127989	8/10/2010	18:54:21	2	BlockProc	SessionList	2	1	3	6	NULL	NULL	NULL	NULL	6	3	28	Faces	NULL	NULL	NULL	Scenes	1	6390	0	272381	10	266091	1	NULL	NULL	face/f_036.bmp	NULL	NULL	NULL	NULL	NULL	NULL	Repeat	SFFSFSSSFSSFSSFFFSFF	NULL	NULL	NULL	TrialProc	Irrelevant	BlockList	1	1	0	265981	10	265491	1	771	266262
TRSEscan	1131	1	60.002	1	1024127989	8/10/2010	18:54:21	2	BlockProc	SessionList	2	1	3	7	NULL	NULL	NULL	NULL	7	3	29	Scenes	NULL	NULL	NULL	Scenes	2	6390	0	279381	10	273091	1	NULL	NULL	scene/s_189.bmp	NULL	NULL	NULL	NULL	NULL	NULL	Repeat	SFFSFSSSFSSFSSFFFSFF	NULL	NULL	NULL	TrialProc	Relevant	BlockList	0	2	0	272981	10	272491	1	1306	273797
TRSEscan	1131	1	60.002	1	1024127989	8/10/2010	18:54:21	2	BlockProc	SessionList	2	1	3	8	NULL	NULL	NULL	NULL	8	3	30	Scenes	NULL	NULL	NULL	Scenes	1	4390	0	284381	10	280091	0	NULL	NULL	scene/s_409.bmp	NULL	NULL	NULL	NULL	NULL	NULL	Novel	SFFSFSSSFSSFSSFFFSFF	NULL	NULL	NULL	TrialProc	Relevant	BlockList	1	1	0	279981	10	279491	1	730	280221
TRSEscan	1131	1	60.002	1	1024127989	8/10/2010	18:54:21	2	BlockProc	SessionList	2	1	3	9	NULL	NULL	NULL	NULL	9	3	31	Scenes	NULL	NULL	NULL	Scenes	2	2390	0	287380	10	285090	0	NULL	NULL	scene/s_409.bmp	NULL	NULL	NULL	NULL	NULL	NULL	Repeat	SFFSFSSSFSSFSSFFFSFF	NULL	NULL	NULL	TrialProc	Relevant	BlockList	1	2	0	284980	9	284490	2	1043	285533
TRSEscan	1131	1	60.002	1	1024127989	8/10/2010	18:54:21	2	BlockProc	SessionList	2	1	3	10	NULL	NULL	NULL	NULL	10	3	32	Faces	NULL	NULL	NULL	Scenes	1	4390	0	292380	10	288090	3	NULL	NULL	face/f_112.bmp	NULL	NULL	NULL	NULL	NULL	NULL	Novel	SFFSFSSSFSSFSSFFFSFF	NULL	NULL	NULL	TrialProc	Irrelevant	BlockList	1	1	0	287980	10	287490	1	547	288037
TRSEscan	1131	1	60.002	1	1024127989	8/10/2010	18:54:21	2	BlockProc	SessionList	2	1	3	11	NULL	NULL	NULL	NULL	11	3	33	Scenes	NULL	NULL	NULL	Scenes	2	6390	0	299380	10	293090	1	NULL	NULL	scene/s_409.bmp	NULL	NULL	NULL	NULL	NULL	NULL	Repeat	SFFSFSSSFSSFSSFFFSFF	NULL	NULL	NULL	TrialProc	Relevant	BlockList	1	2	0	292980	10	292490	2	1059	293549
TRSEscan	1131	1	60.002	1	1024127989	8/10/2010	18:54:21	2	BlockProc	SessionList	2	1	3	12	NULL	NULL	NULL	NULL	12	3	34	Scenes	NULL	NULL	NULL	Scenes	1	2390	0	302380	10	300090	0	NULL	NULL	scene/s_371.bmp	NULL	NULL	NULL	NULL	NULL	NULL	Novel	SFFSFSSSFSSFSSFFFSFF	NULL	NULL	NULL	TrialProc	Relevant	BlockList	1	1	0	299980	10	299490	1	1091	300581
TRSEscan	1131	1	60.002	1	1024127989	8/10/2010	18:54:21	2	BlockProc	SessionList	2	1	3	13	NULL	NULL	NULL	NULL	13	3	35	Faces	NULL	NULL	NULL	Scenes	1	4390	0	307380	10	303090	2	NULL	NULL	face/f_112.bmp	NULL	NULL	NULL	NULL	NULL	NULL	Repeat	SFFSFSSSFSSFSSFFFSFF	NULL	NULL	NULL	TrialProc	Irrelevant	BlockList	1	1	0	302980	10	302490	1	691	303181
TRSEscan	1131	1	60.002	1	1024127989	8/10/2010	18:54:21	2	BlockProc	SessionList	2	1	3	14	NULL	NULL	NULL	NULL	14	3	36	Scenes	NULL	NULL	NULL	Scenes	2	2390	0	310380	10	308090	1	NULL	NULL	scene/s_371.bmp	NULL	NULL	NULL	NULL	NULL	NULL	Repeat	SFFSFSSSFSSFSSFFFSFF	NULL	NULL	NULL	TrialProc	Relevant	BlockList	0	2	0	307980	10	307490	1	1170	308660
TRSEscan	1131	1	60.002	1	1024127989	8/10/2010	18:54:21	2	BlockProc	SessionList	2	1	3	15	NULL	NULL	NULL	NULL	15	3	37	Scenes	NULL	NULL	NULL	Scenes	1	6390	0	317380	10	311090	0	NULL	NULL	scene/s_136.bmp	NULL	NULL	NULL	NULL	NULL	NULL	Novel	SFFSFSSSFSSFSSFFFSFF	NULL	NULL	NULL	TrialProc	Relevant	BlockList	1	1	0	310980	10	310490	1	666	311156
TRSEscan	1131	1	60.002	1	1024127989	8/10/2010	18:54:21	2	BlockProc	SessionList	2	1	3	16	NULL	NULL	NULL	NULL	16	3	38	Faces	NULL	NULL	NULL	Scenes	1	6390	0	324380	10	318090	2	NULL	NULL	face/f_112.bmp	NULL	NULL	NULL	NULL	NULL	NULL	Repeat	SFFSFSSSFSSFSSFFFSFF	NULL	NULL	NULL	TrialProc	Irrelevant	BlockList	1	1	0	317980	10	317490	1	842	318332
TRSEscan	1131	1	60.002	1	1024127989	8/10/2010	18:54:21	2	BlockProc	SessionList	2	1	3	17	NULL	NULL	NULL	NULL	17	3	39	Faces	NULL	NULL	NULL	Scenes	1	2390	0	327379	10	325089	0	NULL	NULL	face/m_135.bmp	NULL	NULL	NULL	NULL	NULL	NULL	Novel	SFFSFSSSFSSFSSFFFSFF	NULL	NULL	NULL	TrialProc	Irrelevant	BlockList	1	1	0	324979	9	324489	1	603	325092
TRSEscan	1131	1	60.002	1	1024127989	8/10/2010	18:54:21	2	BlockProc	SessionList	2	1	3	18	NULL	NULL	NULL	NULL	18	3	40	Faces	NULL	NULL	NULL	Scenes	1	4390	0	332379	10	328089	0	NULL	NULL	face/m_135.bmp	NULL	NULL	NULL	NULL	NULL	NULL	Repeat	SFFSFSSSFSSFSSFFFSFF	NULL	NULL	NULL	TrialProc	Irrelevant	BlockList	1	1	0	327979	10	327489	1	491	327980
TRSEscan	1131	1	60.002	1	1024127989	8/10/2010	18:54:21	2	BlockProc	SessionList	2	1	3	19	NULL	NULL	NULL	NULL	19	3	41	Scenes	NULL	NULL	NULL	Scenes	1	2390	0	335379	10	333089	3	NULL	NULL	scene/s_378.bmp	NULL	NULL	NULL	NULL	NULL	NULL	Novel	SFFSFSSSFSSFSSFFFSFF	NULL	NULL	NULL	TrialProc	Relevant	BlockList	1	1	0	332979	10	332489	1	891	333380
TRSEscan	1131	1	60.002	1	1024127989	8/10/2010	18:54:21	2	BlockProc	SessionList	2	1	3	20	NULL	NULL	NULL	NULL	20	3	42	Faces	NULL	NULL	NULL	Scenes	1	6390	0	342379	10	336089	1	NULL	NULL	face/m_053.bmp	NULL	NULL	NULL	NULL	NULL	NULL	Novel	SFFSFSSSFSSFSSFFFSFF	NULL	NULL	NULL	TrialProc	Irrelevant	BlockList	1	1	0	335979	10	335489	1	635	336124
TRSEscan	1131	1	60.002	1	1024127989	8/10/2010	18:54:21	2	BlockProc	SessionList	2	1	3	21	NULL	NULL	NULL	NULL	21	3	43	Faces	NULL	NULL	NULL	Scenes	1	4390	0	347379	10	343089	0	NULL	NULL	face/f_145.bmp	NULL	NULL	NULL	NULL	NULL	NULL	Novel	SFFSFSSSFSSFSSFFFSFF	NULL	NULL	NULL	TrialProc	Irrelevant	BlockList	1	1	0	342979	10	342489	1	675	343164
TRSEscan	1131	1	60.002	1	1024127989	8/10/2010	18:54:21	2	BlockProc	SessionList	2	1	3	22	NULL	NULL	NULL	NULL	22	3	44		NULL	NULL	NULL	Scenes			NULL	NULL	NULL	NULL		362379	360489		NULL	NULL	NULL	NULL	NULL	NULL			NULL	NULL	NULL	FeedbackProc		BlockList	NULL	NULL	NULL	NULL	NULL	NULL	NULL	NULL	NULL
TRSEscan	1131	1	60.002	1	1024127989	8/10/2010	18:54:21	3	BlockProc	SessionList	2	1	4	1	-999999	365979	10	362489	1	4	45		1	2	1087	Categorize			NULL	NULL	NULL	NULL		NULL	NULL		381267	1	368089	0	382261	381271			0	384161	382271	InstrProc		BlockList	NULL	NULL	NULL	NULL	NULL	NULL	NULL	NULL	NULL
TRSEscan	1131	1	60.002	1	1024127989	8/10/2010	18:54:21	3	BlockProc	SessionList	2	1	4	2	NULL	NULL	NULL	NULL	2	4	46	Scenes	NULL	NULL	NULL	Categorize	2	4390	0	389161	10	384871	0	NULL	NULL	scene/s_301.bmp	NULL	NULL	NULL	NULL	NULL	NULL	Novel	SFFSFSSSFSSFSSFFFSFF	NULL	NULL	NULL	TrialProc	Irrelevant	BlockList	1	2	0	384761	10	384271	2	964	385235
TRSEscan	1131	1	60.002	1	1024127989	8/10/2010	18:54:21	3	BlockProc	SessionList	2	1	4	3	NULL	NULL	NULL	NULL	3	4	47	Faces	NULL	NULL	NULL	Categorize	1	2390	0	392161	10	389871	1	NULL	NULL	face/m_055.bmp	NULL	NULL	NULL	NULL	NULL	NULL	Novel	SFFSFSSSFSSFSSFFFSFF	NULL	NULL	NULL	TrialProc	Irrelevant	BlockList	1	1	0	389761	10	389271	1	579	389850
TRSEscan	1131	1	60.002	1	1024127989	8/10/2010	18:54:21	3	BlockProc	SessionList	2	1	4	4	NULL	NULL	NULL	NULL	4	4	48	Faces	NULL	NULL	NULL	Categorize	1	2390	0	395161	10	392871	0	NULL	NULL	face/m_129.bmp	NULL	NULL	NULL	NULL	NULL	NULL	Novel	SFFSFSSSFSSFSSFFFSFF	NULL	NULL	NULL	TrialProc	Irrelevant	BlockList	1	1	0	392761	10	392271	1	563	392834
TRSEscan	1131	1	60.002	1	1024127989	8/10/2010	18:54:21	3	BlockProc	SessionList	2	1	4	5	NULL	NULL	NULL	NULL	5	4	49	Scenes	NULL	NULL	NULL	Categorize	2	4390	0	400161	10	395871	2	NULL	NULL	scene/s_141.bmp	NULL	NULL	NULL	NULL	NULL	NULL	Novel	SFFSFSSSFSSFSSFFFSFF	NULL	NULL	NULL	TrialProc	Irrelevant	BlockList	1	2	0	395761	10	395271	2	563	395834
TRSEscan	1131	1	60.002	1	1024127989	8/10/2010	18:54:21	3	BlockProc	SessionList	2	1	4	6	NULL	NULL	NULL	NULL	6	4	50	Faces	NULL	NULL	NULL	Categorize	1	6390	0	407161	10	400871	1	NULL	NULL	face/m_129.bmp	NULL	NULL	NULL	NULL	NULL	NULL	Repeat	SFFSFSSSFSSFSSFFFSFF	NULL	NULL	NULL	TrialProc	Irrelevant	BlockList	1	1	0	400761	10	400271	1	819	401090
TRSEscan	1131	1	60.002	1	1024127989	8/10/2010	18:54:21	3	BlockProc	SessionList	2	1	4	7	NULL	NULL	NULL	NULL	7	4	51	Scenes	NULL	NULL	NULL	Categorize	2	6390	0	414161	10	407871	1	NULL	NULL	scene/s_141.bmp	NULL	NULL	NULL	NULL	NULL	NULL	Repeat	SFFSFSSSFSSFSSFFFSFF	NULL	NULL	NULL	TrialProc	Irrelevant	BlockList	1	2	0	407761	10	407271	2	1027	408298
TRSEscan	1131	1	60.002	1	1024127989	8/10/2010	18:54:21	3	BlockProc	SessionList	2	1	4	8	NULL	NULL	NULL	NULL	8	4	52	Scenes	NULL	NULL	NULL	Categorize	2	4390	0	419161	10	414871	0	NULL	NULL	scene/s_264.bmp	NULL	NULL	NULL	NULL	NULL	NULL	Novel	SFFSFSSSFSSFSSFFFSFF	NULL	NULL	NULL	TrialProc	Irrelevant	BlockList	1	2	0	414761	10	414271	2	627	414898
TRSEscan	1131	1	60.002	1	1024127989	8/10/2010	18:54:21	3	BlockProc	SessionList	2	1	4	9	NULL	NULL	NULL	NULL	9	4	53	Scenes	NULL	NULL	NULL	Categorize	2	2390	0	422160	10	419870	0	NULL	NULL	scene/s_264.bmp	NULL	NULL	NULL	NULL	NULL	NULL	Repeat	SFFSFSSSFSSFSSFFFSFF	NULL	NULL	NULL	TrialProc	Irrelevant	BlockList	1	2	0	419760	9	419270	2	876	420146
TRSEscan	1131	1	60.002	1	1024127989	8/10/2010	18:54:21	3	BlockProc	SessionList	2	1	4	10	NULL	NULL	NULL	NULL	10	4	54	Faces	NULL	NULL	NULL	Categorize	1	4390	0	427160	10	422870	3	NULL	NULL	face/f_135.bmp	NULL	NULL	NULL	NULL	NULL	NULL	Novel	SFFSFSSSFSSFSSFFFSFF	NULL	NULL	NULL	TrialProc	Irrelevant	BlockList	1	1	0	422760	10	422270	1	724	422994
TRSEscan	1131	1	60.002	1	1024127989	8/10/2010	18:54:21	3	BlockProc	SessionList	2	1	4	11	NULL	NULL	NULL	NULL	11	4	55	Scenes	NULL	NULL	NULL	Categorize	2	6390	0	434160	10	427870	1	NULL	NULL	scene/s_264.bmp	NULL	NULL	NULL	NULL	NULL	NULL	Repeat	SFFSFSSSFSSFSSFFFSFF	NULL	NULL	NULL	TrialProc	Irrelevant	BlockList	1	2	0	427760	10	427270	2	956	428226
TRSEscan	1131	1	60.002	1	1024127989	8/10/2010	18:54:21	3	BlockProc	SessionList	2	1	4	12	NULL	NULL	NULL	NULL	12	4	56	Scenes	NULL	NULL	NULL	Categorize	2	2390	0	437160	10	434870	0	NULL	NULL	scene/s_063.bmp	NULL	NULL	NULL	NULL	NULL	NULL	Novel	SFFSFSSSFSSFSSFFFSFF	NULL	NULL	NULL	TrialProc	Irrelevant	BlockList	1	2	0	434760	10	434270	2	731	435001
TRSEscan	1131	1	60.002	1	1024127989	8/10/2010	18:54:21	3	BlockProc	SessionList	2	1	4	13	NULL	NULL	NULL	NULL	13	4	57	Faces	NULL	NULL	NULL	Categorize	1	4390	0	442160	10	437870	2	NULL	NULL	face/f_135.bmp	NULL	NULL	NULL	NULL	NULL	NULL	Repeat	SFFSFSSSFSSFSSFFFSFF	NULL	NULL	NULL	TrialProc	Irrelevant	BlockList	1	1	0	437760	10	437270	1	843	438113
TRSEscan	1131	1	60.002	1	1024127989	8/10/2010	18:54:21	3	BlockProc	SessionList	2	1	4	14	NULL	NULL	NULL	NULL	14	4	58	Scenes	NULL	NULL	NULL	Categorize	2	2390	0	445160	10	442870	1	NULL	NULL	scene/s_063.bmp	NULL	NULL	NULL	NULL	NULL	NULL	Repeat	SFFSFSSSFSSFSSFFFSFF	NULL	NULL	NULL	TrialProc	Irrelevant	BlockList	1	2	0	442760	10	442270	2	971	443241
TRSEscan	1131	1	60.002	1	1024127989	8/10/2010	18:54:21	3	BlockProc	SessionList	2	1	4	15	NULL	NULL	NULL	NULL	15	4	59	Scenes	NULL	NULL	NULL	Categorize	2	6390	0	452160	10	445870	0	NULL	NULL	scene/s_439.bmp	NULL	NULL	NULL	NULL	NULL	NULL	Novel	SFFSFSSSFSSFSSFFFSFF	NULL	NULL	NULL	TrialProc	Irrelevant	BlockList	1	2	0	445760	10	445270	2	635	445905
TRSEscan	1131	1	60.002	1	1024127989	8/10/2010	18:54:21	3	BlockProc	SessionList	2	1	4	16	NULL	NULL	NULL	NULL	16	4	60	Faces	NULL	NULL	NULL	Categorize	1	6390	0	459160	10	452870	2	NULL	NULL	face/f_135.bmp	NULL	NULL	NULL	NULL	NULL	NULL	Repeat	SFFSFSSSFSSFSSFFFSFF	NULL	NULL	NULL	TrialProc	Irrelevant	BlockList	1	1	0	452760	10	452270	1	859	453129
TRSEscan	1131	1	60.002	1	1024127989	8/10/2010	18:54:21	3	BlockProc	SessionList	2	1	4	17	NULL	NULL	NULL	NULL	17	4	61	Faces	NULL	NULL	NULL	Categorize	1	2390	0	462159	10	459869	0	NULL	NULL	face/m_033.bmp	NULL	NULL	NULL	NULL	NULL	NULL	Novel	SFFSFSSSFSSFSSFFFSFF	NULL	NULL	NULL	TrialProc	Irrelevant	BlockList	1	1	0	459759	9	459269	1	612	459881
TRSEscan	1131	1	60.002	1	1024127989	8/10/2010	18:54:21	3	BlockProc	SessionList	2	1	4	18	NULL	NULL	NULL	NULL	18	4	62	Faces	NULL	NULL	NULL	Categorize	1	4390	0	467159	10	462869	0	NULL	NULL	face/m_033.bmp	NULL	NULL	NULL	NULL	NULL	NULL	Repeat	SFFSFSSSFSSFSSFFFSFF	NULL	NULL	NULL	TrialProc	Irrelevant	BlockList	1	1	0	462759	10	462269	1	588	462857
TRSEscan	1131	1	60.002	1	1024127989	8/10/2010	18:54:21	3	BlockProc	SessionList	2	1	4	19	NULL	NULL	NULL	NULL	19	4	63	Scenes	NULL	NULL	NULL	Categorize	2	2390	0	470159	10	467869	3	NULL	NULL	scene/s_172.bmp	NULL	NULL	NULL	NULL	NULL	NULL	Novel	SFFSFSSSFSSFSSFFFSFF	NULL	NULL	NULL	TrialProc	Irrelevant	BlockList	1	2	0	467759	10	467269	2	668	467937
TRSEscan	1131	1	60.002	1	1024127989	8/10/2010	18:54:21	3	BlockProc	SessionList	2	1	4	20	NULL	NULL	NULL	NULL	20	4	64	Faces	NULL	NULL	NULL	Categorize	1	6390	0	477159	10	470869	1	NULL	NULL	face/f_081.bmp	NULL	NULL	NULL	NULL	NULL	NULL	Novel	SFFSFSSSFSSFSSFFFSFF	NULL	NULL	NULL	TrialProc	Irrelevant	BlockList	1	1	0	470759	10	470269	1	587	470856
TRSEscan	1131	1	60.002	1	1024127989	8/10/2010	18:54:21	3	BlockProc	SessionList	2	1	4	21	NULL	NULL	NULL	NULL	21	4	65	Faces	NULL	NULL	NULL	Categorize	1	4390	0	482159	10	477869	0	NULL	NULL	face/m_035.bmp	NULL	NULL	NULL	NULL	NULL	NULL	Novel	SFFSFSSSFSSFSSFFFSFF	NULL	NULL	NULL	TrialProc	Irrelevant	BlockList	1	1	0	477759	10	477269	1	835	478104
TRSEscan	1131	1	60.002	1	1024127989	8/10/2010	18:54:21	3	BlockProc	SessionList	2	1	4	22	NULL	NULL	NULL	NULL	22	4	66		NULL	NULL	NULL	Categorize			NULL	NULL	NULL	NULL		497159	495269		NULL	NULL	NULL	NULL	NULL	NULL			NULL	NULL	NULL	FeedbackProc		BlockList	NULL	NULL	NULL	NULL	NULL	NULL	NULL	NULL	NULL
TRSEscan	1131	1	60.002	1	1024127989	8/10/2010	18:54:21	4	BlockProc	SessionList	2	1	5	1	-999999	501224	10	497269	1	5	67		1	2	2725	Both			NULL	NULL	NULL	NULL		NULL	NULL		515479	1	504969	0	516475	515485			0	518375	516485	InstrProc		BlockList	NULL	NULL	NULL	NULL	NULL	NULL	NULL	NULL	NULL
TRSEscan	1131	1	60.002	1	1024127989	8/10/2010	18:54:21	4	BlockProc	SessionList	2	1	5	2	NULL	NULL	NULL	NULL	2	5	68	Scenes	NULL	NULL	NULL	Both	1	4390	0	523375	10	519085	0	NULL	NULL	scene/s_165.bmp	NULL	NULL	NULL	NULL	NULL	NULL	Novel	SFFSFSSSFSSFSSFFFSFF	NULL	NULL	NULL	TrialProc	Relevant	BlockList	1	1	0	518975	10	518485	1	826	519311
TRSEscan	1131	1	60.002	1	1024127989	8/10/2010	18:54:21	4	BlockProc	SessionList	2	1	5	3	NULL	NULL	NULL	NULL	3	5	69	Faces	NULL	NULL	NULL	Both	1	2390	0	526375	10	524085	1	NULL	NULL	face/f_111.bmp	NULL	NULL	NULL	NULL	NULL	NULL	Novel	SFFSFSSSFSSFSSFFFSFF	NULL	NULL	NULL	TrialProc	Relevant	BlockList	1	1	0	523975	10	523485	1	594	524079
TRSEscan	1131	1	60.002	1	1024127989	8/10/2010	18:54:21	4	BlockProc	SessionList	2	1	5	4	NULL	NULL	NULL	NULL	4	5	70	Faces	NULL	NULL	NULL	Both	1	2390	0	529374	10	527084	0	NULL	NULL	face/f_139.bmp	NULL	NULL	NULL	NULL	NULL	NULL	Novel	SFFSFSSSFSSFSSFFFSFF	NULL	NULL	NULL	TrialProc	Relevant	BlockList	1	1	0	526974	9	526484	1	771	527255
TRSEscan	1131	1	60.002	1	1024127989	8/10/2010	18:54:21	4	BlockProc	SessionList	2	1	5	5	NULL	NULL	NULL	NULL	5	5	71	Scenes	NULL	NULL	NULL	Both	1	4390	0	534374	10	530084	2	NULL	NULL	scene/s_385.bmp	NULL	NULL	NULL	NULL	NULL	NULL	Novel	SFFSFSSSFSSFSSFFFSFF	NULL	NULL	NULL	TrialProc	Relevant	BlockList	1	1	0	529974	10	529484	1	1243	530727
TRSEscan	1131	1	60.002	1	1024127989	8/10/2010	18:54:21	4	BlockProc	SessionList	2	1	5	6	NULL	NULL	NULL	NULL	6	5	72	Faces	NULL	NULL	NULL	Both	2	6390	0	541374	10	535084	1	NULL	NULL	face/f_139.bmp	NULL	NULL	NULL	NULL	NULL	NULL	Repeat	SFFSFSSSFSSFSSFFFSFF	NULL	NULL	NULL	TrialProc	Relevant	BlockList	1	2	0	534974	10	534484	2	1147	535631
TRSEscan	1131	1	60.002	1	1024127989	8/10/2010	18:54:21	4	BlockProc	SessionList	2	1	5	7	NULL	NULL	NULL	NULL	7	5	73	Scenes	NULL	NULL	NULL	Both	2	6390	0	548374	10	542084	1	NULL	NULL	scene/s_385.bmp	NULL	NULL	NULL	NULL	NULL	NULL	Repeat	SFFSFSSSFSSFSSFFFSFF	NULL	NULL	NULL	TrialProc	Relevant	BlockList	1	2	0	541974	10	541484	2	1827	543311
TRSEscan	1131	1	60.002	1	1024127989	8/10/2010	18:54:21	4	BlockProc	SessionList	2	1	5	8	NULL	NULL	NULL	NULL	8	5	74	Scenes	NULL	NULL	NULL	Both	1	4390	0	553374	10	549084	0	NULL	NULL	scene/s_050.bmp	NULL	NULL	NULL	NULL	NULL	NULL	Novel	SFFSFSSSFSSFSSFFFSFF	NULL	NULL	NULL	TrialProc	Relevant	BlockList	1	1	0	548974	10	548484	1	1306	549790
TRSEscan	1131	1	60.002	1	1024127989	8/10/2010	18:54:21	4	BlockProc	SessionList	2	1	5	9	NULL	NULL	NULL	NULL	9	5	75	Scenes	NULL	NULL	NULL	Both	2	2390	0	556374	10	554084	0	NULL	NULL	scene/s_050.bmp	NULL	NULL	NULL	NULL	NULL	NULL	Repeat	SFFSFSSSFSSFSSFFFSFF	NULL	NULL	NULL	TrialProc	Relevant	BlockList	0	2	0	553974	10	553484	1	1650	555134
TRSEscan	1131	1	60.002	1	1024127989	8/10/2010	18:54:21	4	BlockProc	SessionList	2	1	5	10	NULL	NULL	NULL	NULL	10	5	76	Faces	NULL	NULL	NULL	Both	1	4390	0	561374	10	557084	3	NULL	NULL	face/f_044.bmp	NULL	NULL	NULL	NULL	NULL	NULL	Novel	SFFSFSSSFSSFSSFFFSFF	NULL	NULL	NULL	TrialProc	Relevant	BlockList	1	1	0	556974	10	556484	1	954	557438
TRSEscan	1131	1	60.002	1	1024127989	8/10/2010	18:54:21	4	BlockProc	SessionList	2	1	5	11	NULL	NULL	NULL	NULL	11	5	77	Scenes	NULL	NULL	NULL	Both	2	6390	0	568374	10	562084	1	NULL	NULL	scene/s_050.bmp	NULL	NULL	NULL	NULL	NULL	NULL	Repeat	SFFSFSSSFSSFSSFFFSFF	NULL	NULL	NULL	TrialProc	Relevant	BlockList	1	2	0	561974	10	561484	2	898	562382
TRSEscan	1131	1	60.002	1	1024127989	8/10/2010	18:54:21	4	BlockProc	SessionList	2	1	5	12	NULL	NULL	NULL	NULL	12	5	78	Scenes	NULL	NULL	NULL	Both	1	2390	0	571373	10	569083	0	NULL	NULL	scene/s_273.bmp	NULL	NULL	NULL	NULL	NULL	NULL	Novel	SFFSFSSSFSSFSSFFFSFF	NULL	NULL	NULL	TrialProc	Relevant	BlockList	0	1	0	568973	9	568483	2	723	569206
TRSEscan	1131	1	60.002	1	1024127989	8/10/2010	18:54:21	4	BlockProc	SessionList	2	1	5	13	NULL	NULL	NULL	NULL	13	5	79	Faces	NULL	NULL	NULL	Both	2	4390	0	576373	10	572083	2	NULL	NULL	face/f_044.bmp	NULL	NULL	NULL	NULL	NULL	NULL	Repeat	SFFSFSSSFSSFSSFFFSFF	NULL	NULL	NULL	TrialProc	Relevant	BlockList	1	2	0	571973	10	571483	2	1827	573310
TRSEscan	1131	1	60.002	1	1024127989	8/10/2010	18:54:21	4	BlockProc	SessionList	2	1	5	14	NULL	NULL	NULL	NULL	14	5	80	Scenes	NULL	NULL	NULL	Both	2	2390	0	579373	10	577083	1	NULL	NULL	scene/s_273.bmp	NULL	NULL	NULL	NULL	NULL	NULL	Repeat	SFFSFSSSFSSFSSFFFSFF	NULL	NULL	NULL	TrialProc	Relevant	BlockList	1	2	0	576973	10	576483	2	1019	577502
TRSEscan	1131	1	60.002	1	1024127989	8/10/2010	18:54:21	4	BlockProc	SessionList	2	1	5	15	NULL	NULL	NULL	NULL	15	5	81	Scenes	NULL	NULL	NULL	Both	1	6390	0	586373	10	580083	0	NULL	NULL	scene/s_176.bmp	NULL	NULL	NULL	NULL	NULL	NULL	Novel	SFFSFSSSFSSFSSFFFSFF	NULL	NULL	NULL	TrialProc	Relevant	BlockList	1	1	0	579973	10	579483	1	2627	582110
TRSEscan	1131	1	60.002	1	1024127989	8/10/2010	18:54:21	4	BlockProc	SessionList	2	1	5	16	NULL	NULL	NULL	NULL	16	5	82	Faces	NULL	NULL	NULL	Both	2	6390	0	593373	10	587083	2	NULL	NULL	face/f_044.bmp	NULL	NULL	NULL	NULL	NULL	NULL	Repeat	SFFSFSSSFSSFSSFFFSFF	NULL	NULL	NULL	TrialProc	Relevant	BlockList	1	2	0	586973	10	586483	2	1506	587989
TRSEscan	1131	1	60.002	1	1024127989	8/10/2010	18:54:21	4	BlockProc	SessionList	2	1	5	17	NULL	NULL	NULL	NULL	17	5	83	Faces	NULL	NULL	NULL	Both	1	2390	0	596373	10	594083	0	NULL	NULL	face/m_083.bmp	NULL	NULL	NULL	NULL	NULL	NULL	Novel	SFFSFSSSFSSFSSFFFSFF	NULL	NULL	NULL	TrialProc	Relevant	BlockList	1	1	0	593973	10	593483	1	650	594133
TRSEscan	1131	1	60.002	1	1024127989	8/10/2010	18:54:21	4	BlockProc	SessionList	2	1	5	18	NULL	NULL	NULL	NULL	18	5	84	Faces	NULL	NULL	NULL	Both	2	4390	0	601373	10	597083	0	NULL	NULL	face/m_083.bmp	NULL	NULL	NULL	NULL	NULL	NULL	Repeat	SFFSFSSSFSSFSSFFFSFF	NULL	NULL	NULL	TrialProc	Relevant	BlockList	0	2	0	596973	10	596483	1	1170	597653
TRSEscan	1131	1	60.002	1	1024127989	8/10/2010	18:54:21	4	BlockProc	SessionList	2	1	5	19	NULL	NULL	NULL	NULL	19	5	85	Scenes	NULL	NULL	NULL	Both	1	2390	0	604373	10	602083	3	NULL	NULL	scene/s_355.bmp	NULL	NULL	NULL	NULL	NULL	NULL	Novel	SFFSFSSSFSSFSSFFFSFF	NULL	NULL	NULL	TrialProc	Relevant	BlockList	1	1	0	601973	10	601483	1	1034	602517
TRSEscan	1131	1	60.002	1	1024127989	8/10/2010	18:54:21	4	BlockProc	SessionList	2	1	5	20	NULL	NULL	NULL	NULL	20	5	86	Faces	NULL	NULL	NULL	Both	1	6390	0	611373	10	605083	1	NULL	NULL	face/f_142.bmp	NULL	NULL	NULL	NULL	NULL	NULL	Novel	SFFSFSSSFSSFSSFFFSFF	NULL	NULL	NULL	TrialProc	Relevant	BlockList	1	1	0	604973	10	604483	1	1186	605669
TRSEscan	1131	1	60.002	1	1024127989	8/10/2010	18:54:21	4	BlockProc	SessionList	2	1	5	21	NULL	NULL	NULL	NULL	21	5	87	Faces	NULL	NULL	NULL	Both	1	4390	0	616372	10	612082	0	NULL	NULL	face/m_119.bmp	NULL	NULL	NULL	NULL	NULL	NULL	Novel	SFFSFSSSFSSFSSFFFSFF	NULL	NULL	NULL	TrialProc	Relevant	BlockList	1	1	0	611972	9	611482	1	787	612269
TRSEscan	1131	1	60.002	1	1024127989	8/10/2010	18:54:21	4	BlockProc	SessionList	2	1	5	22	NULL	NULL	NULL	NULL	22	5	88		NULL	NULL	NULL	Both			NULL	NULL	NULL	NULL		631372	629482		NULL	NULL	NULL	NULL	NULL	NULL			NULL	NULL	NULL	FeedbackProc		BlockList	NULL	NULL	NULL	NULL	NULL	NULL	NULL	NULL	NULL
TRSEscan	1131	2	60.002	1	-1971478507	8/10/2010	19:06:27	1	BlockProc	SessionList	2	2	1	1	-999999	10340	1	4587	1	2	1		1	2	2355	Scenes			NULL	NULL	NULL	NULL		NULL	NULL		24163	1	13721	0	25159	24169			0	27059	25169	InstrProc		BlockList	NULL	NULL	NULL	NULL	NULL	NULL	NULL	NULL	NULL
TRSEscan	1131	2	60.002	1	-1971478507	8/10/2010	19:06:27	1	BlockProc	SessionList	2	2	1	2	NULL	NULL	NULL	NULL	2	2	2	Faces	NULL	NULL	NULL	Scenes	1	2390	0	30059	10	27769	0	NULL	NULL	face/m_102.bmp	NULL	NULL	NULL	NULL	NULL	NULL	Novel	FFSFFFSSFSSFSSSFSFFS	NULL	NULL	NULL	TrialProc	Irrelevant	BlockList	1	1	0	27659	10	27169	1	682	27851
TRSEscan	1131	2	60.002	1	-1971478507	8/10/2010	19:06:27	1	BlockProc	SessionList	2	2	1	3	NULL	NULL	NULL	NULL	3	2	3	Faces	NULL	NULL	NULL	Scenes	1	4390	0	35059	10	30769	0	NULL	NULL	face/f_085.bmp	NULL	NULL	NULL	NULL	NULL	NULL	Novel	FFSFFFSSFSSFSSSFSFFS	NULL	NULL	NULL	TrialProc	Irrelevant	BlockList	1	1	0	30659	10	30169	1	378	30547
TRSEscan	1131	2	60.002	1	-1971478507	8/10/2010	19:06:27	1	BlockProc	SessionList	2	2	1	4	NULL	NULL	NULL	NULL	4	2	4	Scenes	NULL	NULL	NULL	Scenes	1	6390	0	42059	10	35769	2	NULL	NULL	scene/s_185.bmp	NULL	NULL	NULL	NULL	NULL	NULL	Novel	FFSFFFSSFSSFSSSFSFFS	NULL	NULL	NULL	TrialProc	Relevant	BlockList	1	1	0	35659	10	35169	1	994	36163
TRSEscan	1131	2	60.002	1	-1971478507	8/10/2010	19:06:27	1	BlockProc	SessionList	2	2	1	5	NULL	NULL	NULL	NULL	5	2	5	Faces	NULL	NULL	NULL	Scenes	1	4390	0	47059	10	42769	1	NULL	NULL	face/f_085.bmp	NULL	NULL	NULL	NULL	NULL	NULL	Repeat	FFSFFFSSFSSFSSSFSFFS	NULL	NULL	NULL	TrialProc	Irrelevant	BlockList	1	1	0	42659	10	42169	1	594	42763
TRSEscan	1131	2	60.002	1	-1971478507	8/10/2010	19:06:27	1	BlockProc	SessionList	2	2	1	6	NULL	NULL	NULL	NULL	6	2	6	Faces	NULL	NULL	NULL	Scenes	1	2390	0	50059	10	47769	0	NULL	NULL	face/f_085.bmp	NULL	NULL	NULL	NULL	NULL	NULL	Repeat	FFSFFFSSFSSFSSSFSFFS	NULL	NULL	NULL	TrialProc	Irrelevant	BlockList	1	1	0	47659	10	47169	1	594	47763
TRSEscan	1131	2	60.002	1	-1971478507	8/10/2010	19:06:27	1	BlockProc	SessionList	2	2	1	7	NULL	NULL	NULL	NULL	7	2	7	Faces	NULL	NULL	NULL	Scenes	1	6390	0	57059	10	50769	0	NULL	NULL	face/m_047.bmp	NULL	NULL	NULL	NULL	NULL	NULL	Novel	FFSFFFSSFSSFSSSFSFFS	NULL	NULL	NULL	TrialProc	Irrelevant	BlockList	1	1	0	50659	10	50169	1	674	50843
TRSEscan	1131	2	60.002	1	-1971478507	8/10/2010	19:06:27	1	BlockProc	SessionList	2	2	1	8	NULL	NULL	NULL	NULL	8	2	8	Scenes	NULL	NULL	NULL	Scenes	1	2390	0	60059	10	57769	3	NULL	NULL	scene/s_216.bmp	NULL	NULL	NULL	NULL	NULL	NULL	Novel	FFSFFFSSFSSFSSSFSFFS	NULL	NULL	NULL	TrialProc	Relevant	BlockList	1	1	0	57659	10	57169	1	1242	58411
TRSEscan	1131	2	60.002	1	-1971478507	8/10/2010	19:06:27	1	BlockProc	SessionList	2	2	1	9	NULL	NULL	NULL	NULL	9	2	9	Scenes	NULL	NULL	NULL	Scenes	2	4390	0	65059	10	60769	0	NULL	NULL	scene/s_216.bmp	NULL	NULL	NULL	NULL	NULL	NULL	Repeat	FFSFFFSSFSSFSSSFSFFS	NULL	NULL	NULL	TrialProc	Relevant	BlockList	1	2	0	60659	10	60169	2	2009	62178
TRSEscan	1131	2	60.002	1	-1971478507	8/10/2010	19:06:27	1	BlockProc	SessionList	2	2	1	10	NULL	NULL	NULL	NULL	10	2	10	Faces	NULL	NULL	NULL	Scenes	1	2390	0	68058	10	65768	2	NULL	NULL	face/m_047.bmp	NULL	NULL	NULL	NULL	NULL	NULL	Repeat	FFSFFFSSFSSFSSSFSFFS	NULL	NULL	NULL	TrialProc	Irrelevant	BlockList	1	1	0	65658	9	65168	1	658	65826
TRSEscan	1131	2	60.002	1	-1971478507	8/10/2010	19:06:27	1	BlockProc	SessionList	2	2	1	11	NULL	NULL	NULL	NULL	11	2	11	Scenes	NULL	NULL	NULL	Scenes	2	4390	0	73058	10	68768	1	NULL	NULL	scene/s_216.bmp	NULL	NULL	NULL	NULL	NULL	NULL	Repeat	FFSFFFSSFSSFSSSFSFFS	NULL	NULL	NULL	TrialProc	Relevant	BlockList	1	2	0	68658	10	68168	2	658	68826
TRSEscan	1131	2	60.002	1	-1971478507	8/10/2010	19:06:27	1	BlockProc	SessionList	2	2	1	12	NULL	NULL	NULL	NULL	12	2	12	Scenes	NULL	NULL	NULL	Scenes	1	6390	0	80058	10	73768	0	NULL	NULL	scene/s_316.bmp	NULL	NULL	NULL	NULL	NULL	NULL	Novel	FFSFFFSSFSSFSSSFSFFS	NULL	NULL	NULL	TrialProc	Relevant	BlockList	0	1	0	73658	10	73168		0	0
TRSEscan	1131	2	60.002	1	-1971478507	8/10/2010	19:06:27	1	BlockProc	SessionList	2	2	1	13	NULL	NULL	NULL	NULL	13	2	13	Faces	NULL	NULL	NULL	Scenes	1	4390	0	85058	10	80768	2	NULL	NULL	face/m_010.bmp	NULL	NULL	NULL	NULL	NULL	NULL	Novel	FFSFFFSSFSSFSSSFSFFS	NULL	NULL	NULL	TrialProc	Irrelevant	BlockList	1	1	0	80658	10	80168	1	530	80698
TRSEscan	1131	2	60.002	1	-1971478507	8/10/2010	19:06:27	1	BlockProc	SessionList	2	2	1	14	NULL	NULL	NULL	NULL	14	2	14	Scenes	NULL	NULL	NULL	Scenes	2	2390	0	88058	10	85768	1	NULL	NULL	scene/s_316.bmp	NULL	NULL	NULL	NULL	NULL	NULL	Repeat	FFSFFFSSFSSFSSSFSFFS	NULL	NULL	NULL	TrialProc	Relevant	BlockList	0	2	0	85658	10	85168		0	0
TRSEscan	1131	2	60.002	1	-1971478507	8/10/2010	19:06:27	1	BlockProc	SessionList	2	2	1	15	NULL	NULL	NULL	NULL	15	2	15	Scenes	NULL	NULL	NULL	Scenes	1	6390	0	95058	10	88768	0	NULL	NULL	scene/s_049.bmp	NULL	NULL	NULL	NULL	NULL	NULL	Novel	FFSFFFSSFSSFSSSFSFFS	NULL	NULL	NULL	TrialProc	Relevant	BlockList	0	1	0	88658	10	88168		0	0
TRSEscan	1131	2	60.002	1	-1971478507	8/10/2010	19:06:27	1	BlockProc	SessionList	2	2	1	16	NULL	NULL	NULL	NULL	16	2	16	Scenes	NULL	NULL	NULL	Scenes	1	4390	0	100058	10	95768	0	NULL	NULL	scene/s_166.bmp	NULL	NULL	NULL	NULL	NULL	NULL	Novel	FFSFFFSSFSSFSSSFSFFS	NULL	NULL	NULL	TrialProc	Relevant	BlockList	1	1	0	95658	10	95168	1	818	95986
TRSEscan	1131	2	60.002	1	-1971478507	8/10/2010	19:06:27	1	BlockProc	SessionList	2	2	1	17	NULL	NULL	NULL	NULL	17	2	17	Faces	NULL	NULL	NULL	Scenes	1	6390	0	107058	10	100768	3	NULL	NULL	face/m_049.bmp	NULL	NULL	NULL	NULL	NULL	NULL	Novel	FFSFFFSSFSSFSSSFSFFS	NULL	NULL	NULL	TrialProc	Irrelevant	BlockList	1	1	0	100658	10	100168	1	698	100866
TRSEscan	1131	2	60.002	1	-1971478507	8/10/2010	19:06:27	1	BlockProc	SessionList	2	2	1	18	NULL	NULL	NULL	NULL	18	2	18	Scenes	NULL	NULL	NULL	Scenes	2	2390	0	110057	10	107767	1	NULL	NULL	scene/s_166.bmp	NULL	NULL	NULL	NULL	NULL	NULL	Repeat	FFSFFFSSFSSFSSSFSFFS	NULL	NULL	NULL	TrialProc	Relevant	BlockList	0	2	0	107657	9	107167		0	0
TRSEscan	1131	2	60.002	1	-1971478507	8/10/2010	19:06:27	1	BlockProc	SessionList	2	2	1	19	NULL	NULL	NULL	NULL	19	2	19	Faces	NULL	NULL	NULL	Scenes	1	2390	0	113057	10	110767	1	NULL	NULL	face/m_049.bmp	NULL	NULL	NULL	NULL	NULL	NULL	Repeat	FFSFFFSSFSSFSSSFSFFS	NULL	NULL	NULL	TrialProc	Irrelevant	BlockList	1	1	0	110657	10	110167	1	554	110721
TRSEscan	1131	2	60.002	1	-1971478507	8/10/2010	19:06:27	1	BlockProc	SessionList	2	2	1	20	NULL	NULL	NULL	NULL	20	2	20	Faces	NULL	NULL	NULL	Scenes	1	6390	0	120057	10	113767	0	NULL	NULL	face/f_003.bmp	NULL	NULL	NULL	NULL	NULL	NULL	Novel	FFSFFFSSFSSFSSSFSFFS	NULL	NULL	NULL	TrialProc	Irrelevant	BlockList	1	1	0	113657	10	113167	1	570	113737
TRSEscan	1131	2	60.002	1	-1971478507	8/10/2010	19:06:27	1	BlockProc	SessionList	2	2	1	21	NULL	NULL	NULL	NULL	21	2	21	Scenes	NULL	NULL	NULL	Scenes	1	4390	0	125057	10	120767	2	NULL	NULL	scene/s_168.bmp	NULL	NULL	NULL	NULL	NULL	NULL	Novel	FFSFFFSSFSSFSSSFSFFS	NULL	NULL	NULL	TrialProc	Relevant	BlockList	0	1	0	120657	10	120167	2	562	120729
TRSEscan	1131	2	60.002	1	-1971478507	8/10/2010	19:06:27	1	BlockProc	SessionList	2	2	1	22	NULL	NULL	NULL	NULL	22	2	22		NULL	NULL	NULL	Scenes			NULL	NULL	NULL	NULL		140057	138167		NULL	NULL	NULL	NULL	NULL	NULL			NULL	NULL	NULL	FeedbackProc		BlockList	NULL	NULL	NULL	NULL	NULL	NULL	NULL	NULL	NULL
TRSEscan	1131	2	60.002	1	-1971478507	8/10/2010	19:06:27	2	BlockProc	SessionList	2	2	2	1	-999999	142745	10	140167	1	3	23		1	2	2018	Categorize			NULL	NULL	NULL	NULL		NULL	NULL		158712	1	145784	0	159706	158716			0	161606	159716	InstrProc		BlockList	NULL	NULL	NULL	NULL	NULL	NULL	NULL	NULL	NULL
TRSEscan	1131	2	60.002	1	-1971478507	8/10/2010	19:06:27	2	BlockProc	SessionList	2	2	2	2	NULL	NULL	NULL	NULL	2	3	24	Faces	NULL	NULL	NULL	Categorize	1	2390	0	164606	10	162316	0	NULL	NULL	face/f_020.bmp	NULL	NULL	NULL	NULL	NULL	NULL	Novel	FFSFFFSSFSSFSSSFSFFS	NULL	NULL	NULL	TrialProc	Irrelevant	BlockList	1	1	0	162206	10	161716	1	1124	162840
TRSEscan	1131	2	60.002	1	-1971478507	8/10/2010	19:06:27	2	BlockProc	SessionList	2	2	2	3	NULL	NULL	NULL	NULL	3	3	25	Faces	NULL	NULL	NULL	Categorize	1	4390	0	169606	10	165316	0	NULL	NULL	face/m_043.bmp	NULL	NULL	NULL	NULL	NULL	NULL	Novel	FFSFFFSSFSSFSSSFSFFS	NULL	NULL	NULL	TrialProc	Irrelevant	BlockList	1	1	0	165206	10	164716	1	500	165216
TRSEscan	1131	2	60.002	1	-1971478507	8/10/2010	19:06:27	2	BlockProc	SessionList	2	2	2	4	NULL	NULL	NULL	NULL	4	3	26	Scenes	NULL	NULL	NULL	Categorize	2	6390	0	176606	10	170316	2	NULL	NULL	scene/s_234.bmp	NULL	NULL	NULL	NULL	NULL	NULL	Novel	FFSFFFSSFSSFSSSFSFFS	NULL	NULL	NULL	TrialProc	Irrelevant	BlockList	1	2	0	170206	10	169716	2	580	170296
TRSEscan	1131	2	60.002	1	-1971478507	8/10/2010	19:06:27	2	BlockProc	SessionList	2	2	2	5	NULL	NULL	NULL	NULL	5	3	27	Faces	NULL	NULL	NULL	Categorize	1	4390	0	181606	10	177316	1	NULL	NULL	face/m_043.bmp	NULL	NULL	NULL	NULL	NULL	NULL	Repeat	FFSFFFSSFSSFSSSFSFFS	NULL	NULL	NULL	TrialProc	Irrelevant	BlockList	1	1	0	177206	10	176716	1	604	177320
TRSEscan	1131	2	60.002	1	-1971478507	8/10/2010	19:06:27	2	BlockProc	SessionList	2	2	2	6	NULL	NULL	NULL	NULL	6	3	28	Faces	NULL	NULL	NULL	Categorize	1	2390	0	184606	10	182316	0	NULL	NULL	face/m_043.bmp	NULL	NULL	NULL	NULL	NULL	NULL	Repeat	FFSFFFSSFSSFSSSFSFFS	NULL	NULL	NULL	TrialProc	Irrelevant	BlockList	0	1	0	182206	10	181716		0	0
TRSEscan	1131	2	60.002	1	-1971478507	8/10/2010	19:06:27	2	BlockProc	SessionList	2	2	2	7	NULL	NULL	NULL	NULL	7	3	29	Faces	NULL	NULL	NULL	Categorize	1	6390	0	191605	10	185315	0	NULL	NULL	face/f_141.bmp	NULL	NULL	NULL	NULL	NULL	NULL	Novel	FFSFFFSSFSSFSSSFSFFS	NULL	NULL	NULL	TrialProc	Irrelevant	BlockList	1	1	0	185205	9	184715	1	524	185239
TRSEscan	1131	2	60.002	1	-1971478507	8/10/2010	19:06:27	2	BlockProc	SessionList	2	2	2	8	NULL	NULL	NULL	NULL	8	3	30	Scenes	NULL	NULL	NULL	Categorize	2	2390	0	194605	10	192315	3	NULL	NULL	scene/s_383.bmp	NULL	NULL	NULL	NULL	NULL	NULL	Novel	FFSFFFSSFSSFSSSFSFFS	NULL	NULL	NULL	TrialProc	Irrelevant	BlockList	1	2	0	192205	10	191715	2	644	192359
TRSEscan	1131	2	60.002	1	-1971478507	8/10/2010	19:06:27	2	BlockProc	SessionList	2	2	2	9	NULL	NULL	NULL	NULL	9	3	31	Scenes	NULL	NULL	NULL	Categorize	2	4390	0	199605	10	195315	0	NULL	NULL	scene/s_383.bmp	NULL	NULL	NULL	NULL	NULL	NULL	Repeat	FFSFFFSSFSSFSSSFSFFS	NULL	NULL	NULL	TrialProc	Irrelevant	BlockList	1	2	0	195205	10	194715	2	540	195255
TRSEscan	1131	2	60.002	1	-1971478507	8/10/2010	19:06:27	2	BlockProc	SessionList	2	2	2	10	NULL	NULL	NULL	NULL	10	3	32	Faces	NULL	NULL	NULL	Categorize	1	2390	0	202605	10	200315	2	NULL	NULL	face/f_141.bmp	NULL	NULL	NULL	NULL	NULL	NULL	Repeat	FFSFFFSSFSSFSSSFSFFS	NULL	NULL	NULL	TrialProc	Irrelevant	BlockList	0	1	0	200205	10	199715		0	0
TRSEscan	1131	2	60.002	1	-1971478507	8/10/2010	19:06:27	2	BlockProc	SessionList	2	2	2	11	NULL	NULL	NULL	NULL	11	3	33	Scenes	NULL	NULL	NULL	Categorize	2	4390	0	207605	10	203315	1	NULL	NULL	scene/s_383.bmp	NULL	NULL	NULL	NULL	NULL	NULL	Repeat	FFSFFFSSFSSFSSSFSFFS	NULL	NULL	NULL	TrialProc	Irrelevant	BlockList	1	2	0	203205	10	202715	2	540	203255
TRSEscan	1131	2	60.002	1	-1971478507	8/10/2010	19:06:27	2	BlockProc	SessionList	2	2	2	12	NULL	NULL	NULL	NULL	12	3	34	Scenes	NULL	NULL	NULL	Categorize	2	6390	0	214605	10	208315	0	NULL	NULL	scene/s_043.bmp	NULL	NULL	NULL	NULL	NULL	NULL	Novel	FFSFFFSSFSSFSSSFSFFS	NULL	NULL	NULL	TrialProc	Irrelevant	BlockList	0	2	0	208205	10	207715		0	0
TRSEscan	1131	2	60.002	1	-1971478507	8/10/2010	19:06:27	2	BlockProc	SessionList	2	2	2	13	NULL	NULL	NULL	NULL	13	3	35	Faces	NULL	NULL	NULL	Categorize	1	4390	0	219605	10	215315	2	NULL	NULL	face/m_088.bmp	NULL	NULL	NULL	NULL	NULL	NULL	Novel	FFSFFFSSFSSFSSSFSFFS	NULL	NULL	NULL	TrialProc	Irrelevant	BlockList	1	1	0	215205	10	214715	1	604	215319
TRSEscan	1131	2	60.002	1	-1971478507	8/10/2010	19:06:27	2	BlockProc	SessionList	2	2	2	14	NULL	NULL	NULL	NULL	14	3	36	Scenes	NULL	NULL	NULL	Categorize	2	2390	0	222605	10	220315	1	NULL	NULL	scene/s_043.bmp	NULL	NULL	NULL	NULL	NULL	NULL	Repeat	FFSFFFSSFSSFSSSFSFFS	NULL	NULL	NULL	TrialProc	Irrelevant	BlockList	1	2	0	220205	10	219715	2	940	220655
TRSEscan	1131	2	60.002	1	-1971478507	8/10/2010	19:06:27	2	BlockProc	SessionList	2	2	2	15	NULL	NULL	NULL	NULL	15	3	37	Scenes	NULL	NULL	NULL	Categorize	2	6390	0	229604	10	223314	0	NULL	NULL	scene/s_156.bmp	NULL	NULL	NULL	NULL	NULL	NULL	Novel	FFSFFFSSFSSFSSSFSFFS	NULL	NULL	NULL	TrialProc	Irrelevant	BlockList	1	2	0	223204	9	222714	2	972	223686
TRSEscan	1131	2	60.002	1	-1971478507	8/10/2010	19:06:27	2	BlockProc	SessionList	2	2	2	16	NULL	NULL	NULL	NULL	16	3	38	Scenes	NULL	NULL	NULL	Categorize	2	4390	0	234604	10	230314	0	NULL	NULL	scene/s_334.bmp	NULL	NULL	NULL	NULL	NULL	NULL	Novel	FFSFFFSSFSSFSSSFSFFS	NULL	NULL	NULL	TrialProc	Irrelevant	BlockList	0	2	0	230204	10	229714		0	0
TRSEscan	1131	2	60.002	1	-1971478507	8/10/2010	19:06:27	2	BlockProc	SessionList	2	2	2	17	NULL	NULL	NULL	NULL	17	3	39	Faces	NULL	NULL	NULL	Categorize	1	6390	0	241604	10	235314	3	NULL	NULL	face/f_041.bmp	NULL	NULL	NULL	NULL	NULL	NULL	Novel	FFSFFFSSFSSFSSSFSFFS	NULL	NULL	NULL	TrialProc	Irrelevant	BlockList	1	1	0	235204	10	234714	1	532	235246
TRSEscan	1131	2	60.002	1	-1971478507	8/10/2010	19:06:27	2	BlockProc	SessionList	2	2	2	18	NULL	NULL	NULL	NULL	18	3	40	Scenes	NULL	NULL	NULL	Categorize	2	2390	0	244604	10	242314	1	NULL	NULL	scene/s_334.bmp	NULL	NULL	NULL	NULL	NULL	NULL	Repeat	FFSFFFSSFSSFSSSFSFFS	NULL	NULL	NULL	TrialProc	Irrelevant	BlockList	1	2	0	242204	10	241714	2	764	242478
TRSEscan	1131	2	60.002	1	-1971478507	8/10/2010	19:06:27	2	BlockProc	SessionList	2	2	2	19	NULL	NULL	NULL	NULL	19	3	41	Faces	NULL	NULL	NULL	Categorize	1	2390	0	247604	10	245314	1	NULL	NULL	face/f_041.bmp	NULL	NULL	NULL	NULL	NULL	NULL	Repeat	FFSFFFSSFSSFSSSFSFFS	NULL	NULL	NULL	TrialProc	Irrelevant	BlockList	0	1	0	245204	10	244714		0	0
TRSEscan	1131	2	60.002	1	-1971478507	8/10/2010	19:06:27	2	BlockProc	SessionList	2	2	2	20	NULL	NULL	NULL	NULL	20	3	42	Faces	NULL	NULL	NULL	Categorize	1	6390	0	254604	10	248314	0	NULL	NULL	face/m_147.bmp	NULL	NULL	NULL	NULL	NULL	NULL	Novel	FFSFFFSSFSSFSSSFSFFS	NULL	NULL	NULL	TrialProc	Irrelevant	BlockList	1	1	0	248204	10	247714	1	756	248470
TRSEscan	1131	2	60.002	1	-1971478507	8/10/2010	19:06:27	2	BlockProc	SessionList	2	2	2	21	NULL	NULL	NULL	NULL	21	3	43	Scenes	NULL	NULL	NULL	Categorize	2	4390	0	259604	10	255314	2	NULL	NULL	scene/s_163.bmp	NULL	NULL	NULL	NULL	NULL	NULL	Novel	FFSFFFSSFSSFSSSFSFFS	NULL	NULL	NULL	TrialProc	Irrelevant	BlockList	0	2	0	255204	10	254714		0	0
TRSEscan	1131	2	60.002	1	-1971478507	8/10/2010	19:06:27	2	BlockProc	SessionList	2	2	2	22	NULL	NULL	NULL	NULL	22	3	44		NULL	NULL	NULL	Categorize			NULL	NULL	NULL	NULL		274603	272713		NULL	NULL	NULL	NULL	NULL	NULL			NULL	NULL	NULL	FeedbackProc		BlockList	NULL	NULL	NULL	NULL	NULL	NULL	NULL	NULL	NULL
TRSEscan	1131	2	60.002	1	-1971478507	8/10/2010	19:06:27	3	BlockProc	SessionList	2	2	3	1	-999999	278685	10	274713	1	4	45		1	2	1189	Both			NULL	NULL	NULL	NULL		NULL	NULL		293805	1	280897	0	294803	293813			0	296703	294813	InstrProc		BlockList	NULL	NULL	NULL	NULL	NULL	NULL	NULL	NULL	NULL
TRSEscan	1131	2	60.002	1	-1971478507	8/10/2010	19:06:27	3	BlockProc	SessionList	2	2	3	2	NULL	NULL	NULL	NULL	2	4	46	Faces	NULL	NULL	NULL	Both	1	2390	0	299703	10	297413	0	NULL	NULL	face/m_073.bmp	NULL	NULL	NULL	NULL	NULL	NULL	Novel	FFSFFFSSFSSFSSSFSFFS	NULL	NULL	NULL	TrialProc	Relevant	BlockList	1	1	0	297303	10	296813	1	584	297397
TRSEscan	1131	2	60.002	1	-1971478507	8/10/2010	19:06:27	3	BlockProc	SessionList	2	2	3	3	NULL	NULL	NULL	NULL	3	4	47	Faces	NULL	NULL	NULL	Both	1	4390	0	304703	10	300413	0	NULL	NULL	face/m_124.bmp	NULL	NULL	NULL	NULL	NULL	NULL	Novel	FFSFFFSSFSSFSSSFSFFS	NULL	NULL	NULL	TrialProc	Relevant	BlockList	1	1	0	300303	10	299813	1	344	300157
TRSEscan	1131	2	60.002	1	-1971478507	8/10/2010	19:06:27	3	BlockProc	SessionList	2	2	3	4	NULL	NULL	NULL	NULL	4	4	48	Scenes	NULL	NULL	NULL	Both	1	6390	0	311702	10	305412	2	NULL	NULL	scene/s_122.bmp	NULL	NULL	NULL	NULL	NULL	NULL	Novel	FFSFFFSSFSSFSSSFSFFS	NULL	NULL	NULL	TrialProc	Relevant	BlockList	1	1	0	305302	9	304812	1	976	305788
TRSEscan	1131	2	60.002	1	-1971478507	8/10/2010	19:06:27	3	BlockProc	SessionList	2	2	3	5	NULL	NULL	NULL	NULL	5	4	49	Faces	NULL	NULL	NULL	Both	2	4390	0	316702	10	312412	1	NULL	NULL	face/m_124.bmp	NULL	NULL	NULL	NULL	NULL	NULL	Repeat	FFSFFFSSFSSFSSSFSFFS	NULL	NULL	NULL	TrialProc	Relevant	BlockList	1	2	0	312302	10	311812	2	1952	313764
TRSEscan	1131	2	60.002	1	-1971478507	8/10/2010	19:06:27	3	BlockProc	SessionList	2	2	3	6	NULL	NULL	NULL	NULL	6	4	50	Faces	NULL	NULL	NULL	Both	2	2390	0	319702	10	317412	0	NULL	NULL	face/m_124.bmp	NULL	NULL	NULL	NULL	NULL	NULL	Repeat	FFSFFFSSFSSFSSSFSFFS	NULL	NULL	NULL	TrialProc	Relevant	BlockList	1	2	0	317302	10	316812	2	784	317596
TRSEscan	1131	2	60.002	1	-1971478507	8/10/2010	19:06:27	3	BlockProc	SessionList	2	2	3	7	NULL	NULL	NULL	NULL	7	4	51	Faces	NULL	NULL	NULL	Both	1	6390	0	326702	10	320412	0	NULL	NULL	face/m_122.bmp	NULL	NULL	NULL	NULL	NULL	NULL	Novel	FFSFFFSSFSSFSSSFSFFS	NULL	NULL	NULL	TrialProc	Relevant	BlockList	1	1	0	320302	10	319812	1	680	320492
TRSEscan	1131	2	60.002	1	-1971478507	8/10/2010	19:06:27	3	BlockProc	SessionList	2	2	3	8	NULL	NULL	NULL	NULL	8	4	52	Scenes	NULL	NULL	NULL	Both	1	2390	0	329702	10	327412	3	NULL	NULL	scene/s_361.bmp	NULL	NULL	NULL	NULL	NULL	NULL	Novel	FFSFFFSSFSSFSSSFSFFS	NULL	NULL	NULL	TrialProc	Relevant	BlockList	1	1	0	327302	10	326812	1	1496	328308
TRSEscan	1131	2	60.002	1	-1971478507	8/10/2010	19:06:27	3	BlockProc	SessionList	2	2	3	9	NULL	NULL	NULL	NULL	9	4	53	Scenes	NULL	NULL	NULL	Both	2	4390	0	334702	10	330412	0	NULL	NULL	scene/s_361.bmp	NULL	NULL	NULL	NULL	NULL	NULL	Repeat	FFSFFFSSFSSFSSSFSFFS	NULL	NULL	NULL	TrialProc	Relevant	BlockList	1	2	0	330302	10	329812	2	1128	330940
TRSEscan	1131	2	60.002	1	-1971478507	8/10/2010	19:06:27	3	BlockProc	SessionList	2	2	3	10	NULL	NULL	NULL	NULL	10	4	54	Faces	NULL	NULL	NULL	Both	2	2390	0	337702	10	335412	2	NULL	NULL	face/m_122.bmp	NULL	NULL	NULL	NULL	NULL	NULL	Repeat	FFSFFFSSFSSFSSSFSFFS	NULL	NULL	NULL	TrialProc	Relevant	BlockList	1	2	0	335302	10	334812	2	1304	336116
TRSEscan	1131	2	60.002	1	-1971478507	8/10/2010	19:06:27	3	BlockProc	SessionList	2	2	3	11	NULL	NULL	NULL	NULL	11	4	55	Scenes	NULL	NULL	NULL	Both	2	4390	0	342702	10	338412	1	NULL	NULL	scene/s_361.bmp	NULL	NULL	NULL	NULL	NULL	NULL	Repeat	FFSFFFSSFSSFSSSFSFFS	NULL	NULL	NULL	TrialProc	Relevant	BlockList	1	2	0	338302	10	337812	2	1272	339084
TRSEscan	1131	2	60.002	1	-1971478507	8/10/2010	19:06:27	3	BlockProc	SessionList	2	2	3	12	NULL	NULL	NULL	NULL	12	4	56	Scenes	NULL	NULL	NULL	Both	1	6390	0	349702	10	343412	0	NULL	NULL	scene/s_159.bmp	NULL	NULL	NULL	NULL	NULL	NULL	Novel	FFSFFFSSFSSFSSSFSFFS	NULL	NULL	NULL	TrialProc	Relevant	BlockList	1	1	0	343302	10	342812	1	911	343723
TRSEscan	1131	2	60.002	1	-1971478507	8/10/2010	19:06:27	3	BlockProc	SessionList	2	2	3	13	NULL	NULL	NULL	NULL	13	4	57	Faces	NULL	NULL	NULL	Both	1	4390	0	354701	10	350411	2	NULL	NULL	face/m_029.bmp	NULL	NULL	NULL	NULL	NULL	NULL	Novel	FFSFFFSSFSSFSSSFSFFS	NULL	NULL	NULL	TrialProc	Relevant	BlockList	0	1	0	350301	9	349811		0	0
TRSEscan	1131	2	60.002	1	-1971478507	8/10/2010	19:06:27	3	BlockProc	SessionList	2	2	3	14	NULL	NULL	NULL	NULL	14	4	58	Scenes	NULL	NULL	NULL	Both	2	2390	0	357701	10	355411	1	NULL	NULL	scene/s_159.bmp	NULL	NULL	NULL	NULL	NULL	NULL	Repeat	FFSFFFSSFSSFSSSFSFFS	NULL	NULL	NULL	TrialProc	Relevant	BlockList	0	2	0	355301	10	354811		0	0
TRSEscan	1131	2	60.002	1	-1971478507	8/10/2010	19:06:27	3	BlockProc	SessionList	2	2	3	15	NULL	NULL	NULL	NULL	15	4	59	Scenes	NULL	NULL	NULL	Both	1	6390	0	364701	10	358411	0	NULL	NULL	scene/s_242.bmp	NULL	NULL	NULL	NULL	NULL	NULL	Novel	FFSFFFSSFSSFSSSFSFFS	NULL	NULL	NULL	TrialProc	Relevant	BlockList	1	1	0	358301	10	357811	1	1208	359019
TRSEscan	1131	2	60.002	1	-1971478507	8/10/2010	19:06:27	3	BlockProc	SessionList	2	2	3	16	NULL	NULL	NULL	NULL	16	4	60	Scenes	NULL	NULL	NULL	Both	1	4390	0	369701	10	365411	0	NULL	NULL	scene/s_432.bmp	NULL	NULL	NULL	NULL	NULL	NULL	Novel	FFSFFFSSFSSFSSSFSFFS	NULL	NULL	NULL	TrialProc	Relevant	BlockList	1	1	0	365301	10	364811	1	816	365627
TRSEscan	1131	2	60.002	1	-1971478507	8/10/2010	19:06:27	3	BlockProc	SessionList	2	2	3	17	NULL	NULL	NULL	NULL	17	4	61	Faces	NULL	NULL	NULL	Both	1	6390	0	376701	10	370411	3	NULL	NULL	face/f_005.bmp	NULL	NULL	NULL	NULL	NULL	NULL	Novel	FFSFFFSSFSSFSSSFSFFS	NULL	NULL	NULL	TrialProc	Relevant	BlockList	0	1	0	370301	10	369811		0	0
TRSEscan	1131	2	60.002	1	-1971478507	8/10/2010	19:06:27	3	BlockProc	SessionList	2	2	3	18	NULL	NULL	NULL	NULL	18	4	62	Scenes	NULL	NULL	NULL	Both	2	2390	0	379701	10	377411	1	NULL	NULL	scene/s_432.bmp	NULL	NULL	NULL	NULL	NULL	NULL	Repeat	FFSFFFSSFSSFSSSFSFFS	NULL	NULL	NULL	TrialProc	Relevant	BlockList	0	2	0	377301	10	376811	1	912	377723
TRSEscan	1131	2	60.002	1	-1971478507	8/10/2010	19:06:27	3	BlockProc	SessionList	2	2	3	19	NULL	NULL	NULL	NULL	19	4	63	Faces	NULL	NULL	NULL	Both	2	2390	0	382701	10	380411	1	NULL	NULL	face/f_005.bmp	NULL	NULL	NULL	NULL	NULL	NULL	Repeat	FFSFFFSSFSSFSSSFSFFS	NULL	NULL	NULL	TrialProc	Relevant	BlockList	0	2	0	380301	10	379811	1	784	380595
TRSEscan	1131	2	60.002	1	-1971478507	8/10/2010	19:06:27	3	BlockProc	SessionList	2	2	3	20	NULL	NULL	NULL	NULL	20	4	64	Faces	NULL	NULL	NULL	Both	1	6390	0	389700	9	383410	0	NULL	NULL	face/m_085.bmp	NULL	NULL	NULL	NULL	NULL	NULL	Novel	FFSFFFSSFSSFSSSFSFFS	NULL	NULL	NULL	TrialProc	Relevant	BlockList	1	1	0	383301	10	382811	1	744	383555
TRSEscan	1131	2	60.002	1	-1971478507	8/10/2010	19:06:27	3	BlockProc	SessionList	2	2	3	21	NULL	NULL	NULL	NULL	21	4	65	Scenes	NULL	NULL	NULL	Both	1	4390	0	394700	10	390410	2	NULL	NULL	scene/s_400.bmp	NULL	NULL	NULL	NULL	NULL	NULL	Novel	FFSFFFSSFSSFSSSFSFFS	NULL	NULL	NULL	TrialProc	Relevant	BlockList	1	1	0	390300	10	389810	1	696	390506
TRSEscan	1131	2	60.002	1	-1971478507	8/10/2010	19:06:27	3	BlockProc	SessionList	2	2	3	22	NULL	NULL	NULL	NULL	22	4	66		NULL	NULL	NULL	Both			NULL	NULL	NULL	NULL		409700	407810		NULL	NULL	NULL	NULL	NULL	NULL			NULL	NULL	NULL	FeedbackProc		BlockList	NULL	NULL	NULL	NULL	NULL	NULL	NULL	NULL	NULL
TRSEscan	1131	2	60.002	1	-1971478507	8/10/2010	19:06:27	4	BlockProc	SessionList	2	2	4	1	-999999	412282	10	409810	1	5	67		1	2	1669	Faces			NULL	NULL	NULL	NULL		NULL	NULL		428354	1	414977	0	429349	428359			0	431249	429359	InstrProc		BlockList	NULL	NULL	NULL	NULL	NULL	NULL	NULL	NULL	NULL
TRSEscan	1131	2	60.002	1	-1971478507	8/10/2010	19:06:27	4	BlockProc	SessionList	2	2	4	2	NULL	NULL	NULL	NULL	2	5	68	Faces	NULL	NULL	NULL	Faces	1	2390	0	434249	10	431959	0	NULL	NULL	face/f_123.bmp	NULL	NULL	NULL	NULL	NULL	NULL	Novel	FFSFFFSSFSSFSSSFSFFS	NULL	NULL	NULL	TrialProc	Relevant	BlockList	0	1	0	431849	10	431359		0	0
TRSEscan	1131	2	60.002	1	-1971478507	8/10/2010	19:06:27	4	BlockProc	SessionList	2	2	4	3	NULL	NULL	NULL	NULL	3	5	69	Faces	NULL	NULL	NULL	Faces	1	4390	0	439249	10	434959	0	NULL	NULL	face/m_027.bmp	NULL	NULL	NULL	NULL	NULL	NULL	Novel	FFSFFFSSFSSFSSSFSFFS	NULL	NULL	NULL	TrialProc	Relevant	BlockList	0	1	0	434849	10	434359		0	0
TRSEscan	1131	2	60.002	1	-1971478507	8/10/2010	19:06:27	4	BlockProc	SessionList	2	2	4	4	NULL	NULL	NULL	NULL	4	5	70	Scenes	NULL	NULL	NULL	Faces	1	6390	0	446249	10	439959	2	NULL	NULL	scene/s_425.bmp	NULL	NULL	NULL	NULL	NULL	NULL	Novel	FFSFFFSSFSSFSSSFSFFS	NULL	NULL	NULL	TrialProc	Irrelevant	BlockList	1	1	0	439849	10	439359	1	1450	440809
TRSEscan	1131	2	60.002	1	-1971478507	8/10/2010	19:06:27	4	BlockProc	SessionList	2	2	4	5	NULL	NULL	NULL	NULL	5	5	71	Faces	NULL	NULL	NULL	Faces	2	4390	0	451249	10	446959	1	NULL	NULL	face/m_027.bmp	NULL	NULL	NULL	NULL	NULL	NULL	Repeat	FFSFFFSSFSSFSSSFSFFS	NULL	NULL	NULL	TrialProc	Relevant	BlockList	0	2	0	446849	10	446359	1	1194	447553
TRSEscan	1131	2	60.002	1	-1971478507	8/10/2010	19:06:27	4	BlockProc	SessionList	2	2	4	6	NULL	NULL	NULL	NULL	6	5	72	Faces	NULL	NULL	NULL	Faces	2	2390	0	454249	10	451959	0	NULL	NULL	face/m_027.bmp	NULL	NULL	NULL	NULL	NULL	NULL	Repeat	FFSFFFSSFSSFSSSFSFFS	NULL	NULL	NULL	TrialProc	Relevant	BlockList	1	2	0	451849	10	451359	2	818	452177
TRSEscan	1131	2	60.002	1	-1971478507	8/10/2010	19:06:27	4	BlockProc	SessionList	2	2	4	7	NULL	NULL	NULL	NULL	7	5	73	Faces	NULL	NULL	NULL	Faces	1	6390	0	461249	10	454959	0	NULL	NULL	face/f_115.bmp	NULL	NULL	NULL	NULL	NULL	NULL	Novel	FFSFFFSSFSSFSSSFSFFS	NULL	NULL	NULL	TrialProc	Relevant	BlockList	1	1	0	454849	10	454359	1	810	455169
TRSEscan	1131	2	60.002	1	-1971478507	8/10/2010	19:06:27	4	BlockProc	SessionList	2	2	4	8	NULL	NULL	NULL	NULL	8	5	74	Scenes	NULL	NULL	NULL	Faces	1	2390	0	464249	10	461959	3	NULL	NULL	scene/s_272.bmp	NULL	NULL	NULL	NULL	NULL	NULL	Novel	FFSFFFSSFSSFSSSFSFFS	NULL	NULL	NULL	TrialProc	Irrelevant	BlockList	1	1	0	461849	10	461359	1	730	462089
TRSEscan	1131	2	60.002	1	-1971478507	8/10/2010	19:06:27	4	BlockProc	SessionList	2	2	4	9	NULL	NULL	NULL	NULL	9	5	75	Scenes	NULL	NULL	NULL	Faces	1	4390	0	469248	10	464958	0	NULL	NULL	scene/s_272.bmp	NULL	NULL	NULL	NULL	NULL	NULL	Repeat	FFSFFFSSFSSFSSSFSFFS	NULL	NULL	NULL	TrialProc	Irrelevant	BlockList	1	1	0	464848	9	464358	1	866	465224
TRSEscan	1131	2	60.002	1	-1971478507	8/10/2010	19:06:27	4	BlockProc	SessionList	2	2	4	10	NULL	NULL	NULL	NULL	10	5	76	Faces	NULL	NULL	NULL	Faces	2	2390	0	472248	10	469958	2	NULL	NULL	face/f_115.bmp	NULL	NULL	NULL	NULL	NULL	NULL	Repeat	FFSFFFSSFSSFSSSFSFFS	NULL	NULL	NULL	TrialProc	Relevant	BlockList	1	2	0	469848	10	469358	2	778	470136
TRSEscan	1131	2	60.002	1	-1971478507	8/10/2010	19:06:27	4	BlockProc	SessionList	2	2	4	11	NULL	NULL	NULL	NULL	11	5	77	Scenes	NULL	NULL	NULL	Faces	1	4390	0	477248	10	472958	1	NULL	NULL	scene/s_272.bmp	NULL	NULL	NULL	NULL	NULL	NULL	Repeat	FFSFFFSSFSSFSSSFSFFS	NULL	NULL	NULL	TrialProc	Irrelevant	BlockList	1	1	0	472848	10	472358	1	538	472896
TRSEscan	1131	2	60.002	1	-1971478507	8/10/2010	19:06:27	4	BlockProc	SessionList	2	2	4	12	NULL	NULL	NULL	NULL	12	5	78	Scenes	NULL	NULL	NULL	Faces	1	6390	0	484248	10	477958	0	NULL	NULL	scene/s_304.bmp	NULL	NULL	NULL	NULL	NULL	NULL	Novel	FFSFFFSSFSSFSSSFSFFS	NULL	NULL	NULL	TrialProc	Irrelevant	BlockList	0	1	0	477848	10	477358		0	0
TRSEscan	1131	2	60.002	1	-1971478507	8/10/2010	19:06:27	4	BlockProc	SessionList	2	2	4	13	NULL	NULL	NULL	NULL	13	5	79	Faces	NULL	NULL	NULL	Faces	1	4390	0	489248	10	484958	2	NULL	NULL	face/m_089.bmp	NULL	NULL	NULL	NULL	NULL	NULL	Novel	FFSFFFSSFSSFSSSFSFFS	NULL	NULL	NULL	TrialProc	Relevant	BlockList	1	1	0	484848	10	484358	1	834	485192
TRSEscan	1131	2	60.002	1	-1971478507	8/10/2010	19:06:27	4	BlockProc	SessionList	2	2	4	14	NULL	NULL	NULL	NULL	14	5	80	Scenes	NULL	NULL	NULL	Faces	1	2390	0	492248	10	489958	1	NULL	NULL	scene/s_304.bmp	NULL	NULL	NULL	NULL	NULL	NULL	Repeat	FFSFFFSSFSSFSSSFSFFS	NULL	NULL	NULL	TrialProc	Irrelevant	BlockList	1	1	0	489848	10	489358	1	1074	490432
TRSEscan	1131	2	60.002	1	-1971478507	8/10/2010	19:06:27	4	BlockProc	SessionList	2	2	4	15	NULL	NULL	NULL	NULL	15	5	81	Scenes	NULL	NULL	NULL	Faces	1	6390	0	499248	10	492958	0	NULL	NULL	scene/s_170.bmp	NULL	NULL	NULL	NULL	NULL	NULL	Novel	FFSFFFSSFSSFSSSFSFFS	NULL	NULL	NULL	TrialProc	Irrelevant	BlockList	1	1	0	492848	10	492358	1	570	492928
TRSEscan	1131	2	60.002	1	-1971478507	8/10/2010	19:06:27	4	BlockProc	SessionList	2	2	4	16	NULL	NULL	NULL	NULL	16	5	82	Scenes	NULL	NULL	NULL	Faces	1	4390	0	504248	10	499958	0	NULL	NULL	scene/s_192.bmp	NULL	NULL	NULL	NULL	NULL	NULL	Novel	FFSFFFSSFSSFSSSFSFFS	NULL	NULL	NULL	TrialProc	Irrelevant	BlockList	1	1	0	499848	10	499358	1	890	500248
TRSEscan	1131	2	60.002	1	-1971478507	8/10/2010	19:06:27	4	BlockProc	SessionList	2	2	4	17	NULL	NULL	NULL	NULL	17	5	83	Faces	NULL	NULL	NULL	Faces	1	6390	0	511247	10	504957	3	NULL	NULL	face/f_045.bmp	NULL	NULL	NULL	NULL	NULL	NULL	Novel	FFSFFFSSFSSFSSSFSFFS	NULL	NULL	NULL	TrialProc	Relevant	BlockList	0	1	0	504847	9	504357		0	0
TRSEscan	1131	2	60.002	1	-1971478507	8/10/2010	19:06:27	4	BlockProc	SessionList	2	2	4	18	NULL	NULL	NULL	NULL	18	5	84	Scenes	NULL	NULL	NULL	Faces	1	2390	0	514247	10	511957	1	NULL	NULL	scene/s_192.bmp	NULL	NULL	NULL	NULL	NULL	NULL	Repeat	FFSFFFSSFSSFSSSFSFFS	NULL	NULL	NULL	TrialProc	Irrelevant	BlockList	0	1	0	511847	10	511357		0	0
TRSEscan	1131	2	60.002	1	-1971478507	8/10/2010	19:06:27	4	BlockProc	SessionList	2	2	4	19	NULL	NULL	NULL	NULL	19	5	85	Faces	NULL	NULL	NULL	Faces	2	2390	0	517247	10	514957	1	NULL	NULL	face/f_045.bmp	NULL	NULL	NULL	NULL	NULL	NULL	Repeat	FFSFFFSSFSSFSSSFSFFS	NULL	NULL	NULL	TrialProc	Relevant	BlockList	0	2	0	514847	10	514357		0	0
TRSEscan	1131	2	60.002	1	-1971478507	8/10/2010	19:06:27	4	BlockProc	SessionList	2	2	4	20	NULL	NULL	NULL	NULL	20	5	86	Faces	NULL	NULL	NULL	Faces	1	6390	0	524247	10	517957	0	NULL	NULL	face/f_146.bmp	NULL	NULL	NULL	NULL	NULL	NULL	Novel	FFSFFFSSFSSFSSSFSFFS	NULL	NULL	NULL	TrialProc	Relevant	BlockList	1	1	0	517847	10	517357	1	642	517999
TRSEscan	1131	2	60.002	1	-1971478507	8/10/2010	19:06:27	4	BlockProc	SessionList	2	2	4	21	NULL	NULL	NULL	NULL	21	5	87	Scenes	NULL	NULL	NULL	Faces	1	4390	0	529247	10	524957	2	NULL	NULL	scene/s_352.bmp	NULL	NULL	NULL	NULL	NULL	NULL	Novel	FFSFFFSSFSSFSSSFSFFS	NULL	NULL	NULL	TrialProc	Irrelevant	BlockList	0	1	0	524847	10	524357		0	0
TRSEscan	1131	2	60.002	1	-1971478507	8/10/2010	19:06:27	4	BlockProc	SessionList	2	2	4	22	NULL	NULL	NULL	NULL	22	5	88		NULL	NULL	NULL	Faces			NULL	NULL	NULL	NULL		544247	542357		NULL	NULL	NULL	NULL	NULL	NULL			NULL	NULL	NULL	FeedbackProc		BlockList	NULL	NULL	NULL	NULL	NULL	NULL	NULL	NULL	NULL
TRSEscan	1131	3	60.002	1	1948507493	8/10/2010	19:17:03	1	BlockProc	SessionList	2	2	1	1	-999999	35583	1	25636	1	2	1		1	2	2006	Categorize			NULL	NULL	NULL	NULL		NULL	NULL		46815	1	38603	0	47808	46818			0	49708	47818	InstrProc		BlockList	NULL	NULL	NULL	NULL	NULL	NULL	NULL	NULL	NULL
TRSEscan	1131	3	60.002	1	1948507493	8/10/2010	19:17:03	1	BlockProc	SessionList	2	2	1	2	NULL	NULL	NULL	NULL	2	2	2	Faces	NULL	NULL	NULL	Categorize	1	4390	0	54708	10	50418	0	NULL	NULL	face/f_066.bmp	NULL	NULL	NULL	NULL	NULL	NULL	Novel	FFSFFFSFFSSFSFSSSFSS	NULL	NULL	NULL	TrialProc	Irrelevant	BlockList	1	1	0	50308	10	49818	1	549	50367
TRSEscan	1131	3	60.002	1	1948507493	8/10/2010	19:17:03	1	BlockProc	SessionList	2	2	1	3	NULL	NULL	NULL	NULL	3	2	3	Faces	NULL	NULL	NULL	Categorize	1	2390	0	57708	10	55418	0	NULL	NULL	face/f_099.bmp	NULL	NULL	NULL	NULL	NULL	NULL	Novel	FFSFFFSFFSSFSFSSSFSS	NULL	NULL	NULL	TrialProc	Irrelevant	BlockList	1	1	0	55308	10	54818	1	677	55495
TRSEscan	1131	3	60.002	1	1948507493	8/10/2010	19:17:03	1	BlockProc	SessionList	2	2	1	4	NULL	NULL	NULL	NULL	4	2	4	Scenes	NULL	NULL	NULL	Categorize	2	2390	0	60708	10	58418	2	NULL	NULL	scene/s_315.bmp	NULL	NULL	NULL	NULL	NULL	NULL	Novel	FFSFFFSFFSSFSFSSSFSS	NULL	NULL	NULL	TrialProc	Irrelevant	BlockList	1	2	0	58308	10	57818	2	605	58423
TRSEscan	1131	3	60.002	1	1948507493	8/10/2010	19:17:03	1	BlockProc	SessionList	2	2	1	5	NULL	NULL	NULL	NULL	5	2	5	Faces	NULL	NULL	NULL	Categorize	1	6390	0	67708	10	61418	1	NULL	NULL	face/f_147.bmp	NULL	NULL	NULL	NULL	NULL	NULL	Novel	FFSFFFSFFSSFSFSSSFSS	NULL	NULL	NULL	TrialProc	Irrelevant	BlockList	1	1	0	61308	10	60818	1	469	61287
TRSEscan	1131	3	60.002	1	1948507493	8/10/2010	19:17:03	1	BlockProc	SessionList	2	2	1	6	NULL	NULL	NULL	NULL	6	2	6	Faces	NULL	NULL	NULL	Categorize	1	4390	0	72708	10	68418	0	NULL	NULL	face/f_147.bmp	NULL	NULL	NULL	NULL	NULL	NULL	Repeat	FFSFFFSFFSSFSFSSSFSS	NULL	NULL	NULL	TrialProc	Irrelevant	BlockList	1	1	0	68308	10	67818	1	452	68270
TRSEscan	1131	3	60.002	1	1948507493	8/10/2010	19:17:03	1	BlockProc	SessionList	2	2	1	7	NULL	NULL	NULL	NULL	7	2	7	Faces	NULL	NULL	NULL	Categorize	1	6390	0	79707	10	73417	0	NULL	NULL	face/m_071.bmp	NULL	NULL	NULL	NULL	NULL	NULL	Novel	FFSFFFSFFSSFSFSSSFSS	NULL	NULL	NULL	TrialProc	Irrelevant	BlockList	1	1	0	73307	9	72817	1	437	73254
TRSEscan	1131	3	60.002	1	1948507493	8/10/2010	19:17:03	1	BlockProc	SessionList	2	2	1	8	NULL	NULL	NULL	NULL	8	2	8	Scenes	NULL	NULL	NULL	Categorize	2	2390	0	82707	10	80417	3	NULL	NULL	scene/s_434.bmp	NULL	NULL	NULL	NULL	NULL	NULL	Novel	FFSFFFSFFSSFSFSSSFSS	NULL	NULL	NULL	TrialProc	Irrelevant	BlockList	1	2	0	80307	10	79817	2	565	80382
TRSEscan	1131	3	60.002	1	1948507493	8/10/2010	19:17:03	1	BlockProc	SessionList	2	2	1	9	NULL	NULL	NULL	NULL	9	2	9	Faces	NULL	NULL	NULL	Categorize	1	4390	0	87707	10	83417	1	NULL	NULL	face/f_006.bmp	NULL	NULL	NULL	NULL	NULL	NULL	Novel	FFSFFFSFFSSFSFSSSFSS	NULL	NULL	NULL	TrialProc	Irrelevant	BlockList	1	1	0	83307	10	82817	1	421	83238
TRSEscan	1131	3	60.002	1	1948507493	8/10/2010	19:17:03	1	BlockProc	SessionList	2	2	1	10	NULL	NULL	NULL	NULL	10	2	10	Faces	NULL	NULL	NULL	Categorize	1	6390	0	94707	10	88417	0	NULL	NULL	face/f_006.bmp	NULL	NULL	NULL	NULL	NULL	NULL	Repeat	FFSFFFSFFSSFSFSSSFSS	NULL	NULL	NULL	TrialProc	Irrelevant	BlockList	1	1	0	88307	10	87817	1	485	88302
TRSEscan	1131	3	60.002	1	1948507493	8/10/2010	19:17:03	1	BlockProc	SessionList	2	2	1	11	NULL	NULL	NULL	NULL	11	2	11	Scenes	NULL	NULL	NULL	Categorize	2	4390	0	99707	10	95417	2	NULL	NULL	scene/s_025.bmp	NULL	NULL	NULL	NULL	NULL	NULL	Novel	FFSFFFSFFSSFSFSSSFSS	NULL	NULL	NULL	TrialProc	Irrelevant	BlockList	1	2	0	95307	10	94817	2	621	95438
TRSEscan	1131	3	60.002	1	1948507493	8/10/2010	19:17:03	1	BlockProc	SessionList	2	2	1	12	NULL	NULL	NULL	NULL	12	2	12	Scenes	NULL	NULL	NULL	Categorize	2	2390	0	102707	10	100417	0	NULL	NULL	scene/s_025.bmp	NULL	NULL	NULL	NULL	NULL	NULL	Repeat	FFSFFFSFFSSFSFSSSFSS	NULL	NULL	NULL	TrialProc	Irrelevant	BlockList	1	2	0	100307	10	99817	2	709	100526
TRSEscan	1131	3	60.002	1	1948507493	8/10/2010	19:17:03	1	BlockProc	SessionList	2	2	1	13	NULL	NULL	NULL	NULL	13	2	13	Faces	NULL	NULL	NULL	Categorize	1	4390	0	107707	10	103417	2	NULL	NULL	face/f_006.bmp	NULL	NULL	NULL	NULL	NULL	NULL	Repeat	FFSFFFSFFSSFSFSSSFSS	NULL	NULL	NULL	TrialProc	Irrelevant	BlockList	1	1	0	103307	10	102817	1	396	103213
TRSEscan	1131	3	60.002	1	1948507493	8/10/2010	19:17:03	1	BlockProc	SessionList	2	2	1	14	NULL	NULL	NULL	NULL	14	2	14	Scenes	NULL	NULL	NULL	Categorize	2	2390	0	110707	10	108417	1	NULL	NULL	scene/s_317.bmp	NULL	NULL	NULL	NULL	NULL	NULL	Novel	FFSFFFSFFSSFSFSSSFSS	NULL	NULL	NULL	TrialProc	Irrelevant	BlockList	1	2	0	108307	10	107817	2	556	108373
TRSEscan	1131	3	60.002	1	1948507493	8/10/2010	19:17:03	1	BlockProc	SessionList	2	2	1	15	NULL	NULL	NULL	NULL	15	2	15	Faces	NULL	NULL	NULL	Categorize	1	6390	0	117706	10	111416	1	NULL	NULL	face/m_069.bmp	NULL	NULL	NULL	NULL	NULL	NULL	Novel	FFSFFFSFFSSFSFSSSFSS	NULL	NULL	NULL	TrialProc	Irrelevant	BlockList	1	1	0	111306	9	110816	1	461	111277
TRSEscan	1131	3	60.002	1	1948507493	8/10/2010	19:17:03	1	BlockProc	SessionList	2	2	1	16	NULL	NULL	NULL	NULL	16	2	16	Scenes	NULL	NULL	NULL	Categorize	2	4390	0	122706	10	118416	1	NULL	NULL	scene/s_306.bmp	NULL	NULL	NULL	NULL	NULL	NULL	Novel	FFSFFFSFFSSFSFSSSFSS	NULL	NULL	NULL	TrialProc	Irrelevant	BlockList	1	2	0	118306	10	117816	2	685	118501
TRSEscan	1131	3	60.002	1	1948507493	8/10/2010	19:17:03	1	BlockProc	SessionList	2	2	1	17	NULL	NULL	NULL	NULL	17	2	17	Scenes	NULL	NULL	NULL	Categorize	2	6390	0	129706	10	123416	0	NULL	NULL	scene/s_306.bmp	NULL	NULL	NULL	NULL	NULL	NULL	Repeat	FFSFFFSFFSSFSFSSSFSS	NULL	NULL	NULL	TrialProc	Irrelevant	BlockList	1	2	0	123306	10	122816	2	725	123541
TRSEscan	1131	3	60.002	1	1948507493	8/10/2010	19:17:03	1	BlockProc	SessionList	2	2	1	18	NULL	NULL	NULL	NULL	18	2	18	Scenes	NULL	NULL	NULL	Categorize	2	2390	0	132706	10	130416	0	NULL	NULL	scene/s_306.bmp	NULL	NULL	NULL	NULL	NULL	NULL	Repeat	FFSFFFSFFSSFSFSSSFSS	NULL	NULL	NULL	TrialProc	Irrelevant	BlockList	1	2	0	130306	10	129816	2	581	130397
TRSEscan	1131	3	60.002	1	1948507493	8/10/2010	19:17:03	1	BlockProc	SessionList	2	2	1	19	NULL	NULL	NULL	NULL	19	2	19	Faces	NULL	NULL	NULL	Categorize	1	2390	0	135706	10	133416	3	NULL	NULL	face/m_069.bmp	NULL	NULL	NULL	NULL	NULL	NULL	Repeat	FFSFFFSFFSSFSFSSSFSS	NULL	NULL	NULL	TrialProc	Irrelevant	BlockList	1	1	0	133306	10	132816	1	989	133805
TRSEscan	1131	3	60.002	1	1948507493	8/10/2010	19:17:03	1	BlockProc	SessionList	2	2	1	20	NULL	NULL	NULL	NULL	20	2	20	Scenes	NULL	NULL	NULL	Categorize	2	4390	0	140706	10	136416	1	NULL	NULL	scene/s_351.bmp	NULL	NULL	NULL	NULL	NULL	NULL	Novel	FFSFFFSFFSSFSFSSSFSS	NULL	NULL	NULL	TrialProc	Irrelevant	BlockList	1	2	0	136306	10	135816	2	525	136341
TRSEscan	1131	3	60.002	1	1948507493	8/10/2010	19:17:03	1	BlockProc	SessionList	2	2	1	21	NULL	NULL	NULL	NULL	21	2	21	Scenes	NULL	NULL	NULL	Categorize	2	6390	0	147706	10	141416	0	NULL	NULL	scene/s_351.bmp	NULL	NULL	NULL	NULL	NULL	NULL	Repeat	FFSFFFSFFSSFSFSSSFSS	NULL	NULL	NULL	TrialProc	Irrelevant	BlockList	1	2	0	141306	10	140816	2	917	141733
TRSEscan	1131	3	60.002	1	1948507493	8/10/2010	19:17:03	1	BlockProc	SessionList	2	2	1	22	NULL	NULL	NULL	NULL	22	2	22		NULL	NULL	NULL	Categorize			NULL	NULL	NULL	NULL		162705	160815		NULL	NULL	NULL	NULL	NULL	NULL			NULL	NULL	NULL	FeedbackProc		BlockList	NULL	NULL	NULL	NULL	NULL	NULL	NULL	NULL	NULL
TRSEscan	1131	3	60.002	1	1948507493	8/10/2010	19:17:03	2	BlockProc	SessionList	2	2	2	1	-999999	165948	10	162815	1	3	23		1	2	1478	Both			NULL	NULL	NULL	NULL		NULL	NULL		189843	1	168433	0	190838	189848			0	192738	190848	InstrProc		BlockList	NULL	NULL	NULL	NULL	NULL	NULL	NULL	NULL	NULL
TRSEscan	1131	3	60.002	1	1948507493	8/10/2010	19:17:03	2	BlockProc	SessionList	2	2	2	2	NULL	NULL	NULL	NULL	2	3	24	Faces	NULL	NULL	NULL	Both	1	4390	0	197738	10	193448	0	NULL	NULL	face/m_068.bmp	NULL	NULL	NULL	NULL	NULL	NULL	Novel	FFSFFFSFFSSFSFSSSFSS	NULL	NULL	NULL	TrialProc	Relevant	BlockList	1	1	0	193338	10	192848	1	835	193683
TRSEscan	1131	3	60.002	1	1948507493	8/10/2010	19:17:03	2	BlockProc	SessionList	2	2	2	3	NULL	NULL	NULL	NULL	3	3	25	Faces	NULL	NULL	NULL	Both	1	2390	0	200738	10	198448	0	NULL	NULL	face/m_070.bmp	NULL	NULL	NULL	NULL	NULL	NULL	Novel	FFSFFFSFFSSFSFSSSFSS	NULL	NULL	NULL	TrialProc	Relevant	BlockList	1	1	0	198338	10	197848	1	779	198627
TRSEscan	1131	3	60.002	1	1948507493	8/10/2010	19:17:03	2	BlockProc	SessionList	2	2	2	4	NULL	NULL	NULL	NULL	4	3	26	Scenes	NULL	NULL	NULL	Both	1	2390	0	203738	10	201448	2	NULL	NULL	scene/s_342.bmp	NULL	NULL	NULL	NULL	NULL	NULL	Novel	FFSFFFSFFSSFSFSSSFSS	NULL	NULL	NULL	TrialProc	Relevant	BlockList	1	1	0	201338	10	200848	1	907	201755
TRSEscan	1131	3	60.002	1	1948507493	8/10/2010	19:17:03	2	BlockProc	SessionList	2	2	2	5	NULL	NULL	NULL	NULL	5	3	27	Faces	NULL	NULL	NULL	Both	1	6390	0	210737	10	204447	1	NULL	NULL	face/m_076.bmp	NULL	NULL	NULL	NULL	NULL	NULL	Novel	FFSFFFSFFSSFSFSSSFSS	NULL	NULL	NULL	TrialProc	Relevant	BlockList	1	1	0	204337	9	203847	1	572	204419
TRSEscan	1131	3	60.002	1	1948507493	8/10/2010	19:17:03	2	BlockProc	SessionList	2	2	2	6	NULL	NULL	NULL	NULL	6	3	28	Faces	NULL	NULL	NULL	Both	2	4390	0	215737	10	211447	0	NULL	NULL	face/m_076.bmp	NULL	NULL	NULL	NULL	NULL	NULL	Repeat	FFSFFFSFFSSFSFSSSFSS	NULL	NULL	NULL	TrialProc	Relevant	BlockList	1	2	0	211337	10	210847	2	1108	211955
TRSEscan	1131	3	60.002	1	1948507493	8/10/2010	19:17:03	2	BlockProc	SessionList	2	2	2	7	NULL	NULL	NULL	NULL	7	3	29	Faces	NULL	NULL	NULL	Both	1	6390	0	222737	10	216447	0	NULL	NULL	face/f_126.bmp	NULL	NULL	NULL	NULL	NULL	NULL	Novel	FFSFFFSFFSSFSFSSSFSS	NULL	NULL	NULL	TrialProc	Relevant	BlockList	1	1	0	216337	10	215847	1	1348	217195
TRSEscan	1131	3	60.002	1	1948507493	8/10/2010	19:17:03	2	BlockProc	SessionList	2	2	2	8	NULL	NULL	NULL	NULL	8	3	30	Scenes	NULL	NULL	NULL	Both	1	2390	0	225737	10	223447	3	NULL	NULL	scene/s_171.bmp	NULL	NULL	NULL	NULL	NULL	NULL	Novel	FFSFFFSFFSSFSFSSSFSS	NULL	NULL	NULL	TrialProc	Relevant	BlockList	1	1	0	223337	10	222847	1	940	223787
TRSEscan	1131	3	60.002	1	1948507493	8/10/2010	19:17:03	2	BlockProc	SessionList	2	2	2	9	NULL	NULL	NULL	NULL	9	3	31	Faces	NULL	NULL	NULL	Both	1	4390	0	230737	10	226447	1	NULL	NULL	face/m_056.bmp	NULL	NULL	NULL	NULL	NULL	NULL	Novel	FFSFFFSFFSSFSFSSSFSS	NULL	NULL	NULL	TrialProc	Relevant	BlockList	1	1	0	226337	10	225847	1	875	226722
TRSEscan	1131	3	60.002	1	1948507493	8/10/2010	19:17:03	2	BlockProc	SessionList	2	2	2	10	NULL	NULL	NULL	NULL	10	3	32	Faces	NULL	NULL	NULL	Both	2	6390	0	237737	10	231447	0	NULL	NULL	face/m_056.bmp	NULL	NULL	NULL	NULL	NULL	NULL	Repeat	FFSFFFSFFSSFSFSSSFSS	NULL	NULL	NULL	TrialProc	Relevant	BlockList	1	2	0	231337	10	230847	2	819	231666
TRSEscan	1131	3	60.002	1	1948507493	8/10/2010	19:17:03	2	BlockProc	SessionList	2	2	2	11	NULL	NULL	NULL	NULL	11	3	33	Scenes	NULL	NULL	NULL	Both	1	4390	0	242737	10	238447	2	NULL	NULL	scene/s_395.bmp	NULL	NULL	NULL	NULL	NULL	NULL	Novel	FFSFFFSFFSSFSFSSSFSS	NULL	NULL	NULL	TrialProc	Relevant	BlockList	1	1	0	238337	10	237847	1	907	238754
TRSEscan	1131	3	60.002	1	1948507493	8/10/2010	19:17:03	2	BlockProc	SessionList	2	2	2	12	NULL	NULL	NULL	NULL	12	3	34	Scenes	NULL	NULL	NULL	Both	2	2390	0	245736	9	243446	0	NULL	NULL	scene/s_395.bmp	NULL	NULL	NULL	NULL	NULL	NULL	Repeat	FFSFFFSFFSSFSFSSSFSS	NULL	NULL	NULL	TrialProc	Relevant	BlockList	1	2	0	243337	10	242847	2	1171	244018
TRSEscan	1131	3	60.002	1	1948507493	8/10/2010	19:17:03	2	BlockProc	SessionList	2	2	2	13	NULL	NULL	NULL	NULL	13	3	35	Faces	NULL	NULL	NULL	Both	2	4390	0	250736	10	246446	2	NULL	NULL	face/m_056.bmp	NULL	NULL	NULL	NULL	NULL	NULL	Repeat	FFSFFFSFFSSFSFSSSFSS	NULL	NULL	NULL	TrialProc	Relevant	BlockList	1	2	0	246336	10	245846	2	796	246642
TRSEscan	1131	3	60.002	1	1948507493	8/10/2010	19:17:03	2	BlockProc	SessionList	2	2	2	14	NULL	NULL	NULL	NULL	14	3	36	Scenes	NULL	NULL	NULL	Both	1	2390	0	253736	10	251446	1	NULL	NULL	scene/s_391.bmp	NULL	NULL	NULL	NULL	NULL	NULL	Novel	FFSFFFSFFSSFSFSSSFSS	NULL	NULL	NULL	TrialProc	Relevant	BlockList	1	1	0	251336	10	250846	1	1180	252026
TRSEscan	1131	3	60.002	1	1948507493	8/10/2010	19:17:03	2	BlockProc	SessionList	2	2	2	15	NULL	NULL	NULL	NULL	15	3	37	Faces	NULL	NULL	NULL	Both	1	6390	0	260736	10	254446	1	NULL	NULL	face/m_075.bmp	NULL	NULL	NULL	NULL	NULL	NULL	Novel	FFSFFFSFFSSFSFSSSFSS	NULL	NULL	NULL	TrialProc	Relevant	BlockList	1	1	0	254336	10	253846	1	1156	255002
TRSEscan	1131	3	60.002	1	1948507493	8/10/2010	19:17:03	2	BlockProc	SessionList	2	2	2	16	NULL	NULL	NULL	NULL	16	3	38	Scenes	NULL	NULL	NULL	Both	1	4390	0	265736	10	261446	1	NULL	NULL	scene/s_251.bmp	NULL	NULL	NULL	NULL	NULL	NULL	Novel	FFSFFFSFFSSFSFSSSFSS	NULL	NULL	NULL	TrialProc	Relevant	BlockList	1	1	0	261336	10	260846	1	1051	261897
TRSEscan	1131	3	60.002	1	1948507493	8/10/2010	19:17:03	2	BlockProc	SessionList	2	2	2	17	NULL	NULL	NULL	NULL	17	3	39	Scenes	NULL	NULL	NULL	Both	2	6390	0	272736	10	266446	0	NULL	NULL	scene/s_251.bmp	NULL	NULL	NULL	NULL	NULL	NULL	Repeat	FFSFFFSFFSSFSFSSSFSS	NULL	NULL	NULL	TrialProc	Relevant	BlockList	1	2	0	266336	10	265846	2	1027	266873
TRSEscan	1131	3	60.002	1	1948507493	8/10/2010	19:17:03	2	BlockProc	SessionList	2	2	2	18	NULL	NULL	NULL	NULL	18	3	40	Scenes	NULL	NULL	NULL	Both	2	2390	0	275736	10	273446	0	NULL	NULL	scene/s_251.bmp	NULL	NULL	NULL	NULL	NULL	NULL	Repeat	FFSFFFSFFSSFSFSSSFSS	NULL	NULL	NULL	TrialProc	Relevant	BlockList	1	2	0	273336	10	272846	2	1283	274129
TRSEscan	1131	3	60.002	1	1948507493	8/10/2010	19:17:03	2	BlockProc	SessionList	2	2	2	19	NULL	NULL	NULL	NULL	19	3	41	Faces	NULL	NULL	NULL	Both	2	2390	0	278736	10	276446	3	NULL	NULL	face/m_075.bmp	NULL	NULL	NULL	NULL	NULL	NULL	Repeat	FFSFFFSFFSSFSFSSSFSS	NULL	NULL	NULL	TrialProc	Relevant	BlockList	0	2	0	276336	10	275846	1	1715	277561
TRSEscan	1131	3	60.002	1	1948507493	8/10/2010	19:17:03	2	BlockProc	SessionList	2	2	2	20	NULL	NULL	NULL	NULL	20	3	42	Scenes	NULL	NULL	NULL	Both	1	4390	0	283736	10	279446	1	NULL	NULL	scene/s_036.bmp	NULL	NULL	NULL	NULL	NULL	NULL	Novel	FFSFFFSFFSSFSFSSSFSS	NULL	NULL	NULL	TrialProc	Relevant	BlockList	1	1	0	279336	10	278846	1	811	279657
TRSEscan	1131	3	60.002	1	1948507493	8/10/2010	19:17:03	2	BlockProc	SessionList	2	2	2	21	NULL	NULL	NULL	NULL	21	3	43	Scenes	NULL	NULL	NULL	Both	2	6390	0	290735	10	284445	0	NULL	NULL	scene/s_036.bmp	NULL	NULL	NULL	NULL	NULL	NULL	Repeat	FFSFFFSFFSSFSFSSSFSS	NULL	NULL	NULL	TrialProc	Relevant	BlockList	0	2	0	284335	9	283845	1	2604	286449
TRSEscan	1131	3	60.002	1	1948507493	8/10/2010	19:17:03	2	BlockProc	SessionList	2	2	2	22	NULL	NULL	NULL	NULL	22	3	44		NULL	NULL	NULL	Both			NULL	NULL	NULL	NULL		305735	303845		NULL	NULL	NULL	NULL	NULL	NULL			NULL	NULL	NULL	FeedbackProc		BlockList	NULL	NULL	NULL	NULL	NULL	NULL	NULL	NULL	NULL
TRSEscan	1131	3	60.002	1	1948507493	8/10/2010	19:17:03	3	BlockProc	SessionList	2	2	3	1	-999999	308880	10	305845	1	4	45		1	2	2161	Faces			NULL	NULL	NULL	NULL		NULL	NULL		324456	1	312062	0	325451	324461			0	327351	325461	InstrProc		BlockList	NULL	NULL	NULL	NULL	NULL	NULL	NULL	NULL	NULL
TRSEscan	1131	3	60.002	1	1948507493	8/10/2010	19:17:03	3	BlockProc	SessionList	2	2	3	2	NULL	NULL	NULL	NULL	2	4	46	Faces	NULL	NULL	NULL	Faces	1	4390	0	332351	10	328061	0	NULL	NULL	face/m_065.bmp	NULL	NULL	NULL	NULL	NULL	NULL	Novel	FFSFFFSFFSSFSFSSSFSS	NULL	NULL	NULL	TrialProc	Relevant	BlockList	1	1	0	327951	10	327461	1	787	328248
TRSEscan	1131	3	60.002	1	1948507493	8/10/2010	19:17:03	3	BlockProc	SessionList	2	2	3	3	NULL	NULL	NULL	NULL	3	4	47	Faces	NULL	NULL	NULL	Faces	1	2390	0	335351	10	333061	0	NULL	NULL	face/f_022.bmp	NULL	NULL	NULL	NULL	NULL	NULL	Novel	FFSFFFSFFSSFSFSSSFSS	NULL	NULL	NULL	TrialProc	Relevant	BlockList	1	1	0	332951	10	332461	1	515	332976
TRSEscan	1131	3	60.002	1	1948507493	8/10/2010	19:17:03	3	BlockProc	SessionList	2	2	3	4	NULL	NULL	NULL	NULL	4	4	48	Scenes	NULL	NULL	NULL	Faces	1	2390	0	338351	10	336061	2	NULL	NULL	scene/s_311.bmp	NULL	NULL	NULL	NULL	NULL	NULL	Novel	FFSFFFSFFSSFSFSSSFSS	NULL	NULL	NULL	TrialProc	Irrelevant	BlockList	1	1	0	335951	10	335461	1	603	336064
TRSEscan	1131	3	60.002	1	1948507493	8/10/2010	19:17:03	3	BlockProc	SessionList	2	2	3	5	NULL	NULL	NULL	NULL	5	4	49	Faces	NULL	NULL	NULL	Faces	1	6390	0	345351	10	339061	1	NULL	NULL	face/f_008.bmp	NULL	NULL	NULL	NULL	NULL	NULL	Novel	FFSFFFSFFSSFSFSSSFSS	NULL	NULL	NULL	TrialProc	Relevant	BlockList	1	1	0	338951	10	338461	1	739	339200
TRSEscan	1131	3	60.002	1	1948507493	8/10/2010	19:17:03	3	BlockProc	SessionList	2	2	3	6	NULL	NULL	NULL	NULL	6	4	50	Faces	NULL	NULL	NULL	Faces	2	4390	0	350351	10	346061	0	NULL	NULL	face/f_008.bmp	NULL	NULL	NULL	NULL	NULL	NULL	Repeat	FFSFFFSFFSSFSFSSSFSS	NULL	NULL	NULL	TrialProc	Relevant	BlockList	1	2	0	345951	10	345461	2	810	346271
TRSEscan	1131	3	60.002	1	1948507493	8/10/2010	19:17:03	3	BlockProc	SessionList	2	2	3	7	NULL	NULL	NULL	NULL	7	4	51	Faces	NULL	NULL	NULL	Faces	1	6390	0	357350	10	351060	0	NULL	NULL	face/f_035.bmp	NULL	NULL	NULL	NULL	NULL	NULL	Novel	FFSFFFSFFSSFSFSSSFSS	NULL	NULL	NULL	TrialProc	Relevant	BlockList	1	1	0	350950	9	350460	1	595	351055
TRSEscan	1131	3	60.002	1	1948507493	8/10/2010	19:17:03	3	BlockProc	SessionList	2	2	3	8	NULL	NULL	NULL	NULL	8	4	52	Scenes	NULL	NULL	NULL	Faces	1	2390	0	360350	10	358060	3	NULL	NULL	scene/s_389.bmp	NULL	NULL	NULL	NULL	NULL	NULL	Novel	FFSFFFSFFSSFSFSSSFSS	NULL	NULL	NULL	TrialProc	Irrelevant	BlockList	1	1	0	357950	10	357460	1	611	358071
TRSEscan	1131	3	60.002	1	1948507493	8/10/2010	19:17:03	3	BlockProc	SessionList	2	2	3	9	NULL	NULL	NULL	NULL	9	4	53	Faces	NULL	NULL	NULL	Faces	1	4390	0	365350	10	361060	1	NULL	NULL	face/m_121.bmp	NULL	NULL	NULL	NULL	NULL	NULL	Novel	FFSFFFSFFSSFSFSSSFSS	NULL	NULL	NULL	TrialProc	Relevant	BlockList	1	1	0	360950	10	360460	1	499	360959
TRSEscan	1131	3	60.002	1	1948507493	8/10/2010	19:17:03	3	BlockProc	SessionList	2	2	3	10	NULL	NULL	NULL	NULL	10	4	54	Faces	NULL	NULL	NULL	Faces	2	6390	0	372350	10	366060	0	NULL	NULL	face/m_121.bmp	NULL	NULL	NULL	NULL	NULL	NULL	Repeat	FFSFFFSFFSSFSFSSSFSS	NULL	NULL	NULL	TrialProc	Relevant	BlockList	1	2	0	365950	10	365460	2	883	366343
TRSEscan	1131	3	60.002	1	1948507493	8/10/2010	19:17:03	3	BlockProc	SessionList	2	2	3	11	NULL	NULL	NULL	NULL	11	4	55	Scenes	NULL	NULL	NULL	Faces	1	4390	0	377350	10	373060	2	NULL	NULL	scene/s_177.bmp	NULL	NULL	NULL	NULL	NULL	NULL	Novel	FFSFFFSFFSSFSFSSSFSS	NULL	NULL	NULL	TrialProc	Irrelevant	BlockList	1	1	0	372950	10	372460	1	1187	373647
TRSEscan	1131	3	60.002	1	1948507493	8/10/2010	19:17:03	3	BlockProc	SessionList	2	2	3	12	NULL	NULL	NULL	NULL	12	4	56	Scenes	NULL	NULL	NULL	Faces	1	2390	0	380350	10	378060	0	NULL	NULL	scene/s_177.bmp	NULL	NULL	NULL	NULL	NULL	NULL	Repeat	FFSFFFSFFSSFSFSSSFSS	NULL	NULL	NULL	TrialProc	Irrelevant	BlockList	1	1	0	377950	10	377460	1	779	378239
TRSEscan	1131	3	60.002	1	1948507493	8/10/2010	19:17:03	3	BlockProc	SessionList	2	2	3	13	NULL	NULL	NULL	NULL	13	4	57	Faces	NULL	NULL	NULL	Faces	2	4390	0	385350	10	381060	2	NULL	NULL	face/m_121.bmp	NULL	NULL	NULL	NULL	NULL	NULL	Repeat	FFSFFFSFFSSFSFSSSFSS	NULL	NULL	NULL	TrialProc	Relevant	BlockList	1	2	0	380950	10	380460	2	1251	381711
TRSEscan	1131	3	60.002	1	1948507493	8/10/2010	19:17:03	3	BlockProc	SessionList	2	2	3	14	NULL	NULL	NULL	NULL	14	4	58	Scenes	NULL	NULL	NULL	Faces	1	2390	0	388350	10	386060	1	NULL	NULL	scene/s_028.bmp	NULL	NULL	NULL	NULL	NULL	NULL	Novel	FFSFFFSFFSSFSFSSSFSS	NULL	NULL	NULL	TrialProc	Irrelevant	BlockList	1	1	0	385950	10	385460	1	546	386006
TRSEscan	1131	3	60.002	1	1948507493	8/10/2010	19:17:03	3	BlockProc	SessionList	2	2	3	15	NULL	NULL	NULL	NULL	15	4	59	Faces	NULL	NULL	NULL	Faces	1	6390	0	395350	10	389060	1	NULL	NULL	face/f_007.bmp	NULL	NULL	NULL	NULL	NULL	NULL	Novel	FFSFFFSFFSSFSFSSSFSS	NULL	NULL	NULL	TrialProc	Relevant	BlockList	1	1	0	388950	10	388460	1	738	389198
TRSEscan	1131	3	60.002	1	1948507493	8/10/2010	19:17:03	3	BlockProc	SessionList	2	2	3	16	NULL	NULL	NULL	NULL	16	4	60	Scenes	NULL	NULL	NULL	Faces	1	4390	0	400349	10	396059	1	NULL	NULL	scene/s_320.bmp	NULL	NULL	NULL	NULL	NULL	NULL	Novel	FFSFFFSFFSSFSFSSSFSS	NULL	NULL	NULL	TrialProc	Irrelevant	BlockList	0	1	0	395949	9	395459		0	0
TRSEscan	1131	3	60.002	1	1948507493	8/10/2010	19:17:03	3	BlockProc	SessionList	2	2	3	17	NULL	NULL	NULL	NULL	17	4	61	Scenes	NULL	NULL	NULL	Faces	1	6390	0	407349	10	401059	0	NULL	NULL	scene/s_320.bmp	NULL	NULL	NULL	NULL	NULL	NULL	Repeat	FFSFFFSFFSSFSFSSSFSS	NULL	NULL	NULL	TrialProc	Irrelevant	BlockList	1	1	0	400949	10	400459	1	947	401406
TRSEscan	1131	3	60.002	1	1948507493	8/10/2010	19:17:03	3	BlockProc	SessionList	2	2	3	18	NULL	NULL	NULL	NULL	18	4	62	Scenes	NULL	NULL	NULL	Faces	1	2390	0	410349	10	408059	0	NULL	NULL	scene/s_320.bmp	NULL	NULL	NULL	NULL	NULL	NULL	Repeat	FFSFFFSFFSSFSFSSSFSS	NULL	NULL	NULL	TrialProc	Irrelevant	BlockList	0	1	0	407949	10	407459		0	0
TRSEscan	1131	3	60.002	1	1948507493	8/10/2010	19:17:03	3	BlockProc	SessionList	2	2	3	19	NULL	NULL	NULL	NULL	19	4	63	Faces	NULL	NULL	NULL	Faces	2	2390	0	413349	10	411059	3	NULL	NULL	face/f_007.bmp	NULL	NULL	NULL	NULL	NULL	NULL	Repeat	FFSFFFSFFSSFSFSSSFSS	NULL	NULL	NULL	TrialProc	Relevant	BlockList	0	2	0	410949	10	410459	1	1323	411782
TRSEscan	1131	3	60.002	1	1948507493	8/10/2010	19:17:03	3	BlockProc	SessionList	2	2	3	20	NULL	NULL	NULL	NULL	20	4	64	Scenes	NULL	NULL	NULL	Faces	1	4390	0	418349	10	414059	1	NULL	NULL	scene/s_401.bmp	NULL	NULL	NULL	NULL	NULL	NULL	Novel	FFSFFFSFFSSFSFSSSFSS	NULL	NULL	NULL	TrialProc	Irrelevant	BlockList	1	1	0	413949	10	413459	1	667	414126
TRSEscan	1131	3	60.002	1	1948507493	8/10/2010	19:17:03	3	BlockProc	SessionList	2	2	3	21	NULL	NULL	NULL	NULL	21	4	65	Scenes	NULL	NULL	NULL	Faces	1	6390	0	425349	10	419059	0	NULL	NULL	scene/s_401.bmp	NULL	NULL	NULL	NULL	NULL	NULL	Repeat	FFSFFFSFFSSFSFSSSFSS	NULL	NULL	NULL	TrialProc	Irrelevant	BlockList	1	1	0	418949	10	418459	1	483	418942
TRSEscan	1131	3	60.002	1	1948507493	8/10/2010	19:17:03	3	BlockProc	SessionList	2	2	3	22	NULL	NULL	NULL	NULL	22	4	66		NULL	NULL	NULL	Faces			NULL	NULL	NULL	NULL		440348	438458		NULL	NULL	NULL	NULL	NULL	NULL			NULL	NULL	NULL	FeedbackProc		BlockList	NULL	NULL	NULL	NULL	NULL	NULL	NULL	NULL	NULL
TRSEscan	1131	3	60.002	1	1948507493	8/10/2010	19:17:03	4	BlockProc	SessionList	2	2	4	1	-999999	443493	10	440458	1	5	67		1	2	2137	Scenes			NULL	NULL	NULL	NULL		NULL	NULL		458869	1	446659	0	459864	458874			0	461764	459874	InstrProc		BlockList	NULL	NULL	NULL	NULL	NULL	NULL	NULL	NULL	NULL
TRSEscan	1131	3	60.002	1	1948507493	8/10/2010	19:17:03	4	BlockProc	SessionList	2	2	4	2	NULL	NULL	NULL	NULL	2	5	68	Faces	NULL	NULL	NULL	Scenes	1	4390	0	466764	10	462474	0	NULL	NULL	face/m_118.bmp	NULL	NULL	NULL	NULL	NULL	NULL	Novel	FFSFFFSFFSSFSFSSSFSS	NULL	NULL	NULL	TrialProc	Irrelevant	BlockList	1	1	0	462364	10	461874	1	819	462693
TRSEscan	1131	3	60.002	1	1948507493	8/10/2010	19:17:03	4	BlockProc	SessionList	2	2	4	3	NULL	NULL	NULL	NULL	3	5	69	Faces	NULL	NULL	NULL	Scenes	1	2390	0	469764	10	467474	0	NULL	NULL	face/f_132.bmp	NULL	NULL	NULL	NULL	NULL	NULL	Novel	FFSFFFSFFSSFSFSSSFSS	NULL	NULL	NULL	TrialProc	Irrelevant	BlockList	1	1	0	467364	10	466874	1	594	467468
TRSEscan	1131	3	60.002	1	1948507493	8/10/2010	19:17:03	4	BlockProc	SessionList	2	2	4	4	NULL	NULL	NULL	NULL	4	5	70	Scenes	NULL	NULL	NULL	Scenes	1	2390	0	472764	10	470474	2	NULL	NULL	scene/s_064.bmp	NULL	NULL	NULL	NULL	NULL	NULL	Novel	FFSFFFSFFSSFSFSSSFSS	NULL	NULL	NULL	TrialProc	Relevant	BlockList	0	1	0	470364	10	469874		0	0
TRSEscan	1131	3	60.002	1	1948507493	8/10/2010	19:17:03	4	BlockProc	SessionList	2	2	4	5	NULL	NULL	NULL	NULL	5	5	71	Faces	NULL	NULL	NULL	Scenes	1	6390	0	479764	10	473474	1	NULL	NULL	face/f_017.bmp	NULL	NULL	NULL	NULL	NULL	NULL	Novel	FFSFFFSFFSSFSFSSSFSS	NULL	NULL	NULL	TrialProc	Irrelevant	BlockList	1	1	0	473364	10	472874	1	682	473556
TRSEscan	1131	3	60.002	1	1948507493	8/10/2010	19:17:03	4	BlockProc	SessionList	2	2	4	6	NULL	NULL	NULL	NULL	6	5	72	Faces	NULL	NULL	NULL	Scenes	1	4390	0	484764	10	480474	0	NULL	NULL	face/f_017.bmp	NULL	NULL	NULL	NULL	NULL	NULL	Repeat	FFSFFFSFFSSFSFSSSFSS	NULL	NULL	NULL	TrialProc	Irrelevant	BlockList	1	1	0	480364	10	479874	1	1042	480916
TRSEscan	1131	3	60.002	1	1948507493	8/10/2010	19:17:03	4	BlockProc	SessionList	2	2	4	7	NULL	NULL	NULL	NULL	7	5	73	Faces	NULL	NULL	NULL	Scenes	1	6390	0	491764	10	485474	0	NULL	NULL	face/m_110.bmp	NULL	NULL	NULL	NULL	NULL	NULL	Novel	FFSFFFSFFSSFSFSSSFSS	NULL	NULL	NULL	TrialProc	Irrelevant	BlockList	1	1	0	485364	10	484874	1	770	485644
TRSEscan	1131	3	60.002	1	1948507493	8/10/2010	19:17:03	4	BlockProc	SessionList	2	2	4	8	NULL	NULL	NULL	NULL	8	5	74	Scenes	NULL	NULL	NULL	Scenes	1	2390	0	494764	10	492474	3	NULL	NULL	scene/s_289.bmp	NULL	NULL	NULL	NULL	NULL	NULL	Novel	FFSFFFSFFSSFSFSSSFSS	NULL	NULL	NULL	TrialProc	Relevant	BlockList	1	1	0	492364	10	491874	1	882	492756
TRSEscan	1131	3	60.002	1	1948507493	8/10/2010	19:17:03	4	BlockProc	SessionList	2	2	4	9	NULL	NULL	NULL	NULL	9	5	75	Faces	NULL	NULL	NULL	Scenes	1	4390	0	499764	10	495474	1	NULL	NULL	face/m_001.bmp	NULL	NULL	NULL	NULL	NULL	NULL	Novel	FFSFFFSFFSSFSFSSSFSS	NULL	NULL	NULL	TrialProc	Irrelevant	BlockList	1	1	0	495364	10	494874	1	586	495460
TRSEscan	1131	3	60.002	1	1948507493	8/10/2010	19:17:03	4	BlockProc	SessionList	2	2	4	10	NULL	NULL	NULL	NULL	10	5	76	Faces	NULL	NULL	NULL	Scenes	1	6390	0	506763	10	500473	0	NULL	NULL	face/m_001.bmp	NULL	NULL	NULL	NULL	NULL	NULL	Repeat	FFSFFFSFFSSFSFSSSFSS	NULL	NULL	NULL	TrialProc	Irrelevant	BlockList	1	1	0	500363	9	499873	1	403	500276
TRSEscan	1131	3	60.002	1	1948507493	8/10/2010	19:17:03	4	BlockProc	SessionList	2	2	4	11	NULL	NULL	NULL	NULL	11	5	77	Scenes	NULL	NULL	NULL	Scenes	1	4390	0	511763	10	507473	2	NULL	NULL	scene/s_259.bmp	NULL	NULL	NULL	NULL	NULL	NULL	Novel	FFSFFFSFFSSFSFSSSFSS	NULL	NULL	NULL	TrialProc	Relevant	BlockList	1	1	0	507363	10	506873	1	1370	508243
TRSEscan	1131	3	60.002	1	1948507493	8/10/2010	19:17:03	4	BlockProc	SessionList	2	2	4	12	NULL	NULL	NULL	NULL	12	5	78	Scenes	NULL	NULL	NULL	Scenes	2	2390	0	514763	10	512473	0	NULL	NULL	scene/s_259.bmp	NULL	NULL	NULL	NULL	NULL	NULL	Repeat	FFSFFFSFFSSFSFSSSFSS	NULL	NULL	NULL	TrialProc	Relevant	BlockList	1	2	0	512363	10	511873	2	698	512571
TRSEscan	1131	3	60.002	1	1948507493	8/10/2010	19:17:03	4	BlockProc	SessionList	2	2	4	13	NULL	NULL	NULL	NULL	13	5	79	Faces	NULL	NULL	NULL	Scenes	1	4390	0	519763	10	515473	2	NULL	NULL	face/m_001.bmp	NULL	NULL	NULL	NULL	NULL	NULL	Repeat	FFSFFFSFFSSFSFSSSFSS	NULL	NULL	NULL	TrialProc	Irrelevant	BlockList	1	1	0	515363	10	514873	1	522	515395
TRSEscan	1131	3	60.002	1	1948507493	8/10/2010	19:17:03	4	BlockProc	SessionList	2	2	4	14	NULL	NULL	NULL	NULL	14	5	80	Scenes	NULL	NULL	NULL	Scenes	1	2390	0	522763	10	520473	1	NULL	NULL	scene/s_222.bmp	NULL	NULL	NULL	NULL	NULL	NULL	Novel	FFSFFFSFFSSFSFSSSFSS	NULL	NULL	NULL	TrialProc	Relevant	BlockList	1	1	0	520363	10	519873	1	1410	521283
TRSEscan	1131	3	60.002	1	1948507493	8/10/2010	19:17:03	4	BlockProc	SessionList	2	2	4	15	NULL	NULL	NULL	NULL	15	5	81	Faces	NULL	NULL	NULL	Scenes	1	6390	0	529763	10	523473	1	NULL	NULL	face/f_094.bmp	NULL	NULL	NULL	NULL	NULL	NULL	Novel	FFSFFFSFFSSFSFSSSFSS	NULL	NULL	NULL	TrialProc	Irrelevant	BlockList	1	1	0	523363	10	522873	1	962	523835
TRSEscan	1131	3	60.002	1	1948507493	8/10/2010	19:17:03	4	BlockProc	SessionList	2	2	4	16	NULL	NULL	NULL	NULL	16	5	82	Scenes	NULL	NULL	NULL	Scenes	1	4390	0	534763	10	530473	1	NULL	NULL	scene/s_284.bmp	NULL	NULL	NULL	NULL	NULL	NULL	Novel	FFSFFFSFFSSFSFSSSFSS	NULL	NULL	NULL	TrialProc	Relevant	BlockList	0	1	0	530363	10	529873		0	0
TRSEscan	1131	3	60.002	1	1948507493	8/10/2010	19:17:03	4	BlockProc	SessionList	2	2	4	17	NULL	NULL	NULL	NULL	17	5	83	Scenes	NULL	NULL	NULL	Scenes	2	6390	0	541763	10	535473	0	NULL	NULL	scene/s_284.bmp	NULL	NULL	NULL	NULL	NULL	NULL	Repeat	FFSFFFSFFSSFSFSSSFSS	NULL	NULL	NULL	TrialProc	Relevant	BlockList	0	2	0	535363	10	534873	1	666	535539
TRSEscan	1131	3	60.002	1	1948507493	8/10/2010	19:17:03	4	BlockProc	SessionList	2	2	4	18	NULL	NULL	NULL	NULL	18	5	84	Scenes	NULL	NULL	NULL	Scenes	2	2390	0	544762	10	542472	0	NULL	NULL	scene/s_284.bmp	NULL	NULL	NULL	NULL	NULL	NULL	Repeat	FFSFFFSFFSSFSFSSSFSS	NULL	NULL	NULL	TrialProc	Relevant	BlockList	0	2	0	542362	9	541872	1	627	542499
TRSEscan	1131	3	60.002	1	1948507493	8/10/2010	19:17:03	4	BlockProc	SessionList	2	2	4	19	NULL	NULL	NULL	NULL	19	5	85	Faces	NULL	NULL	NULL	Scenes	1	2390	0	547762	10	545472	3	NULL	NULL	face/f_094.bmp	NULL	NULL	NULL	NULL	NULL	NULL	Repeat	FFSFFFSFFSSFSFSSSFSS	NULL	NULL	NULL	TrialProc	Irrelevant	BlockList	1	1	0	545362	10	544872	1	611	545483
TRSEscan	1131	3	60.002	1	1948507493	8/10/2010	19:17:03	4	BlockProc	SessionList	2	2	4	20	NULL	NULL	NULL	NULL	20	5	86	Scenes	NULL	NULL	NULL	Scenes	1	4390	0	552762	10	548472	1	NULL	NULL	scene/s_204.bmp	NULL	NULL	NULL	NULL	NULL	NULL	Novel	FFSFFFSFFSSFSFSSSFSS	NULL	NULL	NULL	TrialProc	Relevant	BlockList	1	1	0	548362	10	547872	1	954	548826
TRSEscan	1131	3	60.002	1	1948507493	8/10/2010	19:17:03	4	BlockProc	SessionList	2	2	4	21	NULL	NULL	NULL	NULL	21	5	87	Scenes	NULL	NULL	NULL	Scenes	2	6390	0	559762	10	553472	0	NULL	NULL	scene/s_204.bmp	NULL	NULL	NULL	NULL	NULL	NULL	Repeat	FFSFFFSFFSSFSFSSSFSS	NULL	NULL	NULL	TrialProc	Relevant	BlockList	1	2	0	553362	10	552872	2	1010	553882
TRSEscan	1131	3	60.002	1	1948507493	8/10/2010	19:17:03	4	BlockProc	SessionList	2	2	4	22	NULL	NULL	NULL	NULL	22	5	88		NULL	NULL	NULL	Scenes			NULL	NULL	NULL	NULL		574762	572872		NULL	NULL	NULL	NULL	NULL	NULL			NULL	NULL	NULL	FeedbackProc		BlockList	NULL	NULL	NULL	NULL	NULL	NULL	NULL	NULL	NULL
TRSEscan	1131	4	60.002	1	372733101	8/10/2010	19:27:14	1	BlockProc	SessionList	2	2	1	1	-999999	59507	2	51887	1	2	1		1	2	1580	Both			NULL	NULL	NULL	NULL		NULL	NULL		69602	1	62104	0	70593	69603			0	72492	70602	InstrProc		BlockList	NULL	NULL	NULL	NULL	NULL	NULL	NULL	NULL	NULL
TRSEscan	1131	4	60.002	1	372733101	8/10/2010	19:27:14	1	BlockProc	SessionList	2	2	1	2	NULL	NULL	NULL	NULL	2	2	2	Scenes	NULL	NULL	NULL	Both	1	2390	0	75492	10	73202	0	NULL	NULL	scene/s_286.bmp	NULL	NULL	NULL	NULL	NULL	NULL	Novel	SSFSSSFSFSSFFSFFFSFF	NULL	NULL	NULL	TrialProc	Relevant	BlockList	1	1	0	73092	10	72602	1	1112	73714
TRSEscan	1131	4	60.002	1	372733101	8/10/2010	19:27:14	1	BlockProc	SessionList	2	2	1	3	NULL	NULL	NULL	NULL	3	2	3	Scenes	NULL	NULL	NULL	Both	2	4390	0	80492	10	76202	0	NULL	NULL	scene/s_286.bmp	NULL	NULL	NULL	NULL	NULL	NULL	Repeat	SSFSSSFSFSSFFSFFFSFF	NULL	NULL	NULL	TrialProc	Relevant	BlockList	1	2	0	76092	10	75602	2	752	76354
TRSEscan	1131	4	60.002	1	372733101	8/10/2010	19:27:14	1	BlockProc	SessionList	2	2	1	4	NULL	NULL	NULL	NULL	4	2	4	Faces	NULL	NULL	NULL	Both	1	6390	0	87492	10	81202	2	NULL	NULL	face/f_019.bmp	NULL	NULL	NULL	NULL	NULL	NULL	Novel	SSFSSSFSFSSFFSFFFSFF	NULL	NULL	NULL	TrialProc	Relevant	BlockList	1	1	0	81092	10	80602	1	632	81234
TRSEscan	1131	4	60.002	1	372733101	8/10/2010	19:27:14	1	BlockProc	SessionList	2	2	1	5	NULL	NULL	NULL	NULL	5	2	5	Scenes	NULL	NULL	NULL	Both	2	4390	0	92492	10	88202	1	NULL	NULL	scene/s_286.bmp	NULL	NULL	NULL	NULL	NULL	NULL	Repeat	SSFSSSFSFSSFFSFFFSFF	NULL	NULL	NULL	TrialProc	Relevant	BlockList	1	2	0	88092	10	87602	2	888	88490
TRSEscan	1131	4	60.002	1	372733101	8/10/2010	19:27:14	1	BlockProc	SessionList	2	2	1	6	NULL	NULL	NULL	NULL	6	2	6	Scenes	NULL	NULL	NULL	Both	1	2390	0	95492	10	93202	0	NULL	NULL	scene/s_135.bmp	NULL	NULL	NULL	NULL	NULL	NULL	Novel	SSFSSSFSFSSFFSFFFSFF	NULL	NULL	NULL	TrialProc	Relevant	BlockList	1	1	0	93092	10	92602	1	920	93522
TRSEscan	1131	4	60.002	1	372733101	8/10/2010	19:27:14	1	BlockProc	SessionList	2	2	1	7	NULL	NULL	NULL	NULL	7	2	7	Scenes	NULL	NULL	NULL	Both	1	4390	0	100492	10	96202	0	NULL	NULL	scene/s_191.bmp	NULL	NULL	NULL	NULL	NULL	NULL	Novel	SSFSSSFSFSSFFSFFFSFF	NULL	NULL	NULL	TrialProc	Relevant	BlockList	1	1	0	96092	10	95602	1	1080	96682
TRSEscan	1131	4	60.002	1	372733101	8/10/2010	19:27:14	1	BlockProc	SessionList	2	2	1	8	NULL	NULL	NULL	NULL	8	2	8	Faces	NULL	NULL	NULL	Both	2	2390	0	103492	10	101202	3	NULL	NULL	face/f_019.bmp	NULL	NULL	NULL	NULL	NULL	NULL	Repeat	SSFSSSFSFSSFFSFFFSFF	NULL	NULL	NULL	TrialProc	Relevant	BlockList	1	2	0	101092	10	100602	2	1271	101873
TRSEscan	1131	4	60.002	1	372733101	8/10/2010	19:27:14	1	BlockProc	SessionList	2	2	1	9	NULL	NULL	NULL	NULL	9	2	9	Scenes	NULL	NULL	NULL	Both	2	6390	0	110492	10	104202	1	NULL	NULL	scene/s_191.bmp	NULL	NULL	NULL	NULL	NULL	NULL	Repeat	SSFSSSFSFSSFFSFFFSFF	NULL	NULL	NULL	TrialProc	Relevant	BlockList	1	2	0	104092	10	103602	2	807	104409
TRSEscan	1131	4	60.002	1	372733101	8/10/2010	19:27:14	1	BlockProc	SessionList	2	2	1	10	NULL	NULL	NULL	NULL	10	2	10	Faces	NULL	NULL	NULL	Both	2	4390	0	115491	10	111201	1	NULL	NULL	face/f_019.bmp	NULL	NULL	NULL	NULL	NULL	NULL	Repeat	SSFSSSFSFSSFFSFFFSFF	NULL	NULL	NULL	TrialProc	Relevant	BlockList	1	2	0	111091	9	110601	2	864	111465
TRSEscan	1131	4	60.002	1	372733101	8/10/2010	19:27:14	1	BlockProc	SessionList	2	2	1	11	NULL	NULL	NULL	NULL	11	2	11	Scenes	NULL	NULL	NULL	Both	1	6390	0	122491	10	116201	1	NULL	NULL	scene/s_367.bmp	NULL	NULL	NULL	NULL	NULL	NULL	Novel	SSFSSSFSFSSFFSFFFSFF	NULL	NULL	NULL	TrialProc	Relevant	BlockList	1	1	0	116091	10	115601	1	760	116361
TRSEscan	1131	4	60.002	1	372733101	8/10/2010	19:27:14	1	BlockProc	SessionList	2	2	1	12	NULL	NULL	NULL	NULL	12	2	12	Scenes	NULL	NULL	NULL	Both	1	2390	0	125491	10	123201	0	NULL	NULL	scene/s_089.bmp	NULL	NULL	NULL	NULL	NULL	NULL	Novel	SSFSSSFSFSSFFSFFFSFF	NULL	NULL	NULL	TrialProc	Relevant	BlockList	1	1	0	123091	10	122601	1	904	123505
TRSEscan	1131	4	60.002	1	372733101	8/10/2010	19:27:14	1	BlockProc	SessionList	2	2	1	13	NULL	NULL	NULL	NULL	13	2	13	Faces	NULL	NULL	NULL	Both	1	2390	0	128491	10	126201	2	NULL	NULL	face/m_094.bmp	NULL	NULL	NULL	NULL	NULL	NULL	Novel	SSFSSSFSFSSFFSFFFSFF	NULL	NULL	NULL	TrialProc	Relevant	BlockList	1	1	0	126091	10	125601	1	928	126529
TRSEscan	1131	4	60.002	1	372733101	8/10/2010	19:27:14	1	BlockProc	SessionList	2	2	1	14	NULL	NULL	NULL	NULL	14	2	14	Faces	NULL	NULL	NULL	Both	1	6390	0	135491	10	129201	0	NULL	NULL	face/f_125.bmp	NULL	NULL	NULL	NULL	NULL	NULL	Novel	SSFSSSFSFSSFFSFFFSFF	NULL	NULL	NULL	TrialProc	Relevant	BlockList	1	1	0	129091	10	128601	1	736	129337
TRSEscan	1131	4	60.002	1	372733101	8/10/2010	19:27:14	1	BlockProc	SessionList	2	2	1	15	NULL	NULL	NULL	NULL	15	2	15	Scenes	NULL	NULL	NULL	Both	1	4390	0	140491	10	136201	2	NULL	NULL	scene/s_197.bmp	NULL	NULL	NULL	NULL	NULL	NULL	Novel	SSFSSSFSFSSFFSFFFSFF	NULL	NULL	NULL	TrialProc	Relevant	BlockList	1	1	0	136091	10	135601	1	832	136433
TRSEscan	1131	4	60.002	1	372733101	8/10/2010	19:27:14	1	BlockProc	SessionList	2	2	1	16	NULL	NULL	NULL	NULL	16	2	16	Faces	NULL	NULL	NULL	Both	2	6390	0	147491	10	141201	1	NULL	NULL	face/f_125.bmp	NULL	NULL	NULL	NULL	NULL	NULL	Repeat	SSFSSSFSFSSFFSFFFSFF	NULL	NULL	NULL	TrialProc	Relevant	BlockList	1	2	0	141091	10	140601	2	1047	141648
TRSEscan	1131	4	60.002	1	372733101	8/10/2010	19:27:14	1	BlockProc	SessionList	2	2	1	17	NULL	NULL	NULL	NULL	17	2	17	Faces	NULL	NULL	NULL	Both	1	2390	0	150490	10	148200	0	NULL	NULL	face/m_107.bmp	NULL	NULL	NULL	NULL	NULL	NULL	Novel	SSFSSSFSFSSFFSFFFSFF	NULL	NULL	NULL	TrialProc	Relevant	BlockList	0	1	0	148090	9	147600		0	0
TRSEscan	1131	4	60.002	1	372733101	8/10/2010	19:27:14	1	BlockProc	SessionList	2	2	1	18	NULL	NULL	NULL	NULL	18	2	18	Faces	NULL	NULL	NULL	Both	1	4390	0	155490	10	151200	0	NULL	NULL	face/f_091.bmp	NULL	NULL	NULL	NULL	NULL	NULL	Novel	SSFSSSFSFSSFFSFFFSFF	NULL	NULL	NULL	TrialProc	Relevant	BlockList	1	1	0	151090	10	150600	1	720	151320
TRSEscan	1131	4	60.002	1	372733101	8/10/2010	19:27:14	1	BlockProc	SessionList	2	2	1	19	NULL	NULL	NULL	NULL	19	2	19	Scenes	NULL	NULL	NULL	Both	2	2390	0	158490	10	156200	3	NULL	NULL	scene/s_197.bmp	NULL	NULL	NULL	NULL	NULL	NULL	Repeat	SSFSSSFSFSSFFSFFFSFF	NULL	NULL	NULL	TrialProc	Relevant	BlockList	0	2	0	156090	10	155600	1	672	156272
TRSEscan	1131	4	60.002	1	372733101	8/10/2010	19:27:14	1	BlockProc	SessionList	2	2	1	20	NULL	NULL	NULL	NULL	20	2	20	Faces	NULL	NULL	NULL	Both	1	4390	0	163490	10	159200	1	NULL	NULL	face/m_099.bmp	NULL	NULL	NULL	NULL	NULL	NULL	Novel	SSFSSSFSFSSFFSFFFSFF	NULL	NULL	NULL	TrialProc	Relevant	BlockList	1	1	0	159090	10	158600	1	816	159416
TRSEscan	1131	4	60.002	1	372733101	8/10/2010	19:27:14	1	BlockProc	SessionList	2	2	1	21	NULL	NULL	NULL	NULL	21	2	21	Faces	NULL	NULL	NULL	Both	2	6390	0	170490	10	164200	0	NULL	NULL	face/m_099.bmp	NULL	NULL	NULL	NULL	NULL	NULL	Repeat	SSFSSSFSFSSFFSFFFSFF	NULL	NULL	NULL	TrialProc	Relevant	BlockList	1	2	0	164090	10	163600	2	712	164312
TRSEscan	1131	4	60.002	1	372733101	8/10/2010	19:27:14	1	BlockProc	SessionList	2	2	1	22	NULL	NULL	NULL	NULL	22	2	22		NULL	NULL	NULL	Both			NULL	NULL	NULL	NULL		185490	183600		NULL	NULL	NULL	NULL	NULL	NULL			NULL	NULL	NULL	FeedbackProc		BlockList	NULL	NULL	NULL	NULL	NULL	NULL	NULL	NULL	NULL
TRSEscan	1131	4	60.002	1	372733101	8/10/2010	19:27:14	2	BlockProc	SessionList	2	2	2	1	-999999	187935	9	185599	1	3	23		1	2	1114	Faces			NULL	NULL	NULL	NULL		NULL	NULL		204231	1	190067	0	205222	204232			0	207122	205232	InstrProc		BlockList	NULL	NULL	NULL	NULL	NULL	NULL	NULL	NULL	NULL
TRSEscan	1131	4	60.002	1	372733101	8/10/2010	19:27:14	2	BlockProc	SessionList	2	2	2	2	NULL	NULL	NULL	NULL	2	3	24	Scenes	NULL	NULL	NULL	Faces	1	2390	0	210122	10	207832	0	NULL	NULL	scene/s_152.bmp	NULL	NULL	NULL	NULL	NULL	NULL	Novel	SSFSSSFSFSSFFSFFFSFF	NULL	NULL	NULL	TrialProc	Irrelevant	BlockList	1	1	0	207722	10	207232	1	847	208079
TRSEscan	1131	4	60.002	1	372733101	8/10/2010	19:27:14	2	BlockProc	SessionList	2	2	2	3	NULL	NULL	NULL	NULL	3	3	25	Scenes	NULL	NULL	NULL	Faces	1	4390	0	215122	10	210832	0	NULL	NULL	scene/s_152.bmp	NULL	NULL	NULL	NULL	NULL	NULL	Repeat	SSFSSSFSFSSFFSFFFSFF	NULL	NULL	NULL	TrialProc	Irrelevant	BlockList	1	1	0	210722	10	210232	1	391	210623
TRSEscan	1131	4	60.002	1	372733101	8/10/2010	19:27:14	2	BlockProc	SessionList	2	2	2	4	NULL	NULL	NULL	NULL	4	3	26	Faces	NULL	NULL	NULL	Faces	1	6390	0	222122	10	215832	2	NULL	NULL	face/m_013.bmp	NULL	NULL	NULL	NULL	NULL	NULL	Novel	SSFSSSFSFSSFFSFFFSFF	NULL	NULL	NULL	TrialProc	Relevant	BlockList	1	1	0	215722	10	215232	1	583	215815
TRSEscan	1131	4	60.002	1	372733101	8/10/2010	19:27:14	2	BlockProc	SessionList	2	2	2	5	NULL	NULL	NULL	NULL	5	3	27	Scenes	NULL	NULL	NULL	Faces	1	4390	0	227122	10	222832	1	NULL	NULL	scene/s_152.bmp	NULL	NULL	NULL	NULL	NULL	NULL	Repeat	SSFSSSFSFSSFFSFFFSFF	NULL	NULL	NULL	TrialProc	Irrelevant	BlockList	1	1	0	222722	10	222232	1	663	222895
TRSEscan	1131	4	60.002	1	372733101	8/10/2010	19:27:14	2	BlockProc	SessionList	2	2	2	6	NULL	NULL	NULL	NULL	6	3	28	Scenes	NULL	NULL	NULL	Faces	1	2390	0	230122	10	227832	0	NULL	NULL	scene/s_443.bmp	NULL	NULL	NULL	NULL	NULL	NULL	Novel	SSFSSSFSFSSFFSFFFSFF	NULL	NULL	NULL	TrialProc	Irrelevant	BlockList	0	1	0	227722	10	227232		0	0
TRSEscan	1131	4	60.002	1	372733101	8/10/2010	19:27:14	2	BlockProc	SessionList	2	2	2	7	NULL	NULL	NULL	NULL	7	3	29	Scenes	NULL	NULL	NULL	Faces	1	4390	0	235122	10	230832	0	NULL	NULL	scene/s_194.bmp	NULL	NULL	NULL	NULL	NULL	NULL	Novel	SSFSSSFSFSSFFSFFFSFF	NULL	NULL	NULL	TrialProc	Irrelevant	BlockList	1	1	0	230722	10	230232	1	630	230862
TRSEscan	1131	4	60.002	1	372733101	8/10/2010	19:27:14	2	BlockProc	SessionList	2	2	2	8	NULL	NULL	NULL	NULL	8	3	30	Faces	NULL	NULL	NULL	Faces	2	2390	0	238122	10	235832	3	NULL	NULL	face/m_013.bmp	NULL	NULL	NULL	NULL	NULL	NULL	Repeat	SSFSSSFSFSSFFSFFFSFF	NULL	NULL	NULL	TrialProc	Relevant	BlockList	1	2	0	235722	10	235232	2	894	236126
TRSEscan	1131	4	60.002	1	372733101	8/10/2010	19:27:14	2	BlockProc	SessionList	2	2	2	9	NULL	NULL	NULL	NULL	9	3	31	Scenes	NULL	NULL	NULL	Faces	1	6390	0	245121	9	238831	1	NULL	NULL	scene/s_194.bmp	NULL	NULL	NULL	NULL	NULL	NULL	Repeat	SSFSSSFSFSSFFSFFFSFF	NULL	NULL	NULL	TrialProc	Irrelevant	BlockList	1	1	0	238722	10	238232	1	654	238886
TRSEscan	1131	4	60.002	1	372733101	8/10/2010	19:27:14	2	BlockProc	SessionList	2	2	2	10	NULL	NULL	NULL	NULL	10	3	32	Faces	NULL	NULL	NULL	Faces	2	4390	0	250121	10	245831	1	NULL	NULL	face/m_013.bmp	NULL	NULL	NULL	NULL	NULL	NULL	Repeat	SSFSSSFSFSSFFSFFFSFF	NULL	NULL	NULL	TrialProc	Relevant	BlockList	0	2	0	245721	10	245231		0	0
TRSEscan	1131	4	60.002	1	372733101	8/10/2010	19:27:14	2	BlockProc	SessionList	2	2	2	11	NULL	NULL	NULL	NULL	11	3	33	Scenes	NULL	NULL	NULL	Faces	1	6390	0	257121	10	250831	1	NULL	NULL	scene/s_092.bmp	NULL	NULL	NULL	NULL	NULL	NULL	Novel	SSFSSSFSFSSFFSFFFSFF	NULL	NULL	NULL	TrialProc	Irrelevant	BlockList	1	1	0	250721	10	250231	1	991	251222
TRSEscan	1131	4	60.002	1	372733101	8/10/2010	19:27:14	2	BlockProc	SessionList	2	2	2	12	NULL	NULL	NULL	NULL	12	3	34	Scenes	NULL	NULL	NULL	Faces	1	2390	0	260121	10	257831	0	NULL	NULL	scene/s_199.bmp	NULL	NULL	NULL	NULL	NULL	NULL	Novel	SSFSSSFSFSSFFSFFFSFF	NULL	NULL	NULL	TrialProc	Irrelevant	BlockList	0	1	0	257721	10	257231		0	0
TRSEscan	1131	4	60.002	1	372733101	8/10/2010	19:27:14	2	BlockProc	SessionList	2	2	2	13	NULL	NULL	NULL	NULL	13	3	35	Faces	NULL	NULL	NULL	Faces	1	2390	0	263121	10	260831	2	NULL	NULL	face/m_087.bmp	NULL	NULL	NULL	NULL	NULL	NULL	Novel	SSFSSSFSFSSFFSFFFSFF	NULL	NULL	NULL	TrialProc	Relevant	BlockList	1	1	0	260721	10	260231	1	2063	262294
