ExperimentName	Subject	Session	Display.RefreshRate	Group	RandomSeed	SessionDate	SessionTime	Block	Procedure[Block]	Running[Block]	SessionList	SessionList.Cycle	SessionList.Sample	Trial	BlockInstr.OffsetDelay	BlockInstr.OffsetTime	BlockInstr.OnsetDelay	BlockInstr.OnsetTime	BlockList	BlockList.Cycle	BlockList.Sample	Category	Challenge.ACC	Challenge.RESP	Challenge.RT	Condition	CorrResp	Delay	DelayFixation.OffsetDelay	DelayFixation.OffsetTime	DelayFixation.OnsetDelay	DelayFixation.OnsetTime	Distractors	Feedback.OffsetTime	Feedback.OnsetTime	Filename	GetReady.OffsetTime	GetReady.OnsetDelay	GetReady.OnsetTime	Go.OffsetDelay	Go.OffsetTime	Go.OnsetTime	Novelty	Permutation	PostGoFixation.OffsetDelay	PostGoFixation.OffsetTime	PostGoFixation.OnsetTime	Procedure[Trial]	Relevance	Running[Trial]	Stim.ACC	Stim.CRESP	Stim.OffsetDelay	Stim.OffsetTime	Stim.OnsetDelay	Stim.OnsetTime	Stim.RESP	Stim.RT	Stim.RTTime
TRSEscan	1141	1	60.002	1	-1344743539	8/11/2010	10:51:16	1	BlockProc	SessionList	2	1	2	1	-999999	77328	10	72762	1	2	1		1	2	2286	Faces			NULL	NULL	NULL	NULL		NULL	NULL		89976	1	80630	0	90968	89978			0	92868	90978	InstrProc		BlockList	NULL	NULL	NULL	NULL	NULL	NULL	NULL	NULL	NULL
TRSEscan	1141	1	60.002	1	-1344743539	8/11/2010	10:51:16	1	BlockProc	SessionList	2	1	2	2	NULL	NULL	NULL	NULL	2	2	2	Scenes	NULL	NULL	NULL	Faces	1	4390	0	97868	10	93578	0	NULL	NULL	scene/s_364.bmp	NULL	NULL	NULL	NULL	NULL	NULL	Novel	SFFSFSSSFSSFSSFFFSFF	NULL	NULL	NULL	TrialProc	Irrelevant	BlockList	1	1	0	93468	10	92978	1	902	93880
TRSEscan	1141	1	60.002	1	-1344743539	8/11/2010	10:51:16	1	BlockProc	SessionList	2	1	2	3	NULL	NULL	NULL	NULL	3	2	3	Faces	NULL	NULL	NULL	Faces	1	2390	0	100868	10	98578	1	NULL	NULL	face/m_120.bmp	NULL	NULL	NULL	NULL	NULL	NULL	Novel	SFFSFSSSFSSFSSFFFSFF	NULL	NULL	NULL	TrialProc	Relevant	BlockList	1	1	0	98468	10	97978	1	421	98399
TRSEscan	1141	1	60.002	1	-1344743539	8/11/2010	10:51:16	1	BlockProc	SessionList	2	1	2	4	NULL	NULL	NULL	NULL	4	2	4	Faces	NULL	NULL	NULL	Faces	1	2390	0	103868	10	101578	0	NULL	NULL	face/m_014.bmp	NULL	NULL	NULL	NULL	NULL	NULL	Novel	SFFSFSSSFSSFSSFFFSFF	NULL	NULL	NULL	TrialProc	Relevant	BlockList	1	1	0	101468	10	100978	1	597	101575
TRSEscan	1141	1	60.002	1	-1344743539	8/11/2010	10:51:16	1	BlockProc	SessionList	2	1	2	5	NULL	NULL	NULL	NULL	5	2	5	Scenes	NULL	NULL	NULL	Faces	1	4390	0	108868	10	104578	2	NULL	NULL	scene/s_200.bmp	NULL	NULL	NULL	NULL	NULL	NULL	Novel	SFFSFSSSFSSFSSFFFSFF	NULL	NULL	NULL	TrialProc	Irrelevant	BlockList	1	1	0	104468	10	103978	1	429	104407
TRSEscan	1141	1	60.002	1	-1344743539	8/11/2010	10:51:16	1	BlockProc	SessionList	2	1	2	6	NULL	NULL	NULL	NULL	6	2	6	Faces	NULL	NULL	NULL	Faces	2	6390	0	115868	10	109578	1	NULL	NULL	face/m_014.bmp	NULL	NULL	NULL	NULL	NULL	NULL	Repeat	SFFSFSSSFSSFSSFFFSFF	NULL	NULL	NULL	TrialProc	Relevant	BlockList	0	2	0	109468	10	108978	1	957	109935
TRSEscan	1141	1	60.002	1	-1344743539	8/11/2010	10:51:16	1	BlockProc	SessionList	2	1	2	7	NULL	NULL	NULL	NULL	7	2	7	Scenes	NULL	NULL	NULL	Faces	1	6390	0	122868	10	116578	1	NULL	NULL	scene/s_200.bmp	NULL	NULL	NULL	NULL	NULL	NULL	Repeat	SFFSFSSSFSSFSSFFFSFF	NULL	NULL	NULL	TrialProc	Irrelevant	BlockList	1	1	0	116468	10	115978	1	437	116415
TRSEscan	1141	1	60.002	1	-1344743539	8/11/2010	10:51:16	1	BlockProc	SessionList	2	1	2	8	NULL	NULL	NULL	NULL	8	2	8	Scenes	NULL	NULL	NULL	Faces	1	4390	0	127867	10	123577	0	NULL	NULL	scene/s_004.bmp	NULL	NULL	NULL	NULL	NULL	NULL	Novel	SFFSFSSSFSSFSSFFFSFF	NULL	NULL	NULL	TrialProc	Irrelevant	BlockList	1	1	0	123467	9	122977	1	598	123575
TRSEscan	1141	1	60.002	1	-1344743539	8/11/2010	10:51:16	1	BlockProc	SessionList	2	1	2	9	NULL	NULL	NULL	NULL	9	2	9	Scenes	NULL	NULL	NULL	Faces	1	2390	0	130867	10	128577	0	NULL	NULL	scene/s_004.bmp	NULL	NULL	NULL	NULL	NULL	NULL	Repeat	SFFSFSSSFSSFSSFFFSFF	NULL	NULL	NULL	TrialProc	Irrelevant	BlockList	1	1	0	128467	10	127977	1	406	128383
TRSEscan	1141	1	60.002	1	-1344743539	8/11/2010	10:51:16	1	BlockProc	SessionList	2	1	2	10	NULL	NULL	NULL	NULL	10	2	10	Faces	NULL	NULL	NULL	Faces	1	4390	0	135867	10	131577	3	NULL	NULL	face/f_038.bmp	NULL	NULL	NULL	NULL	NULL	NULL	Novel	SFFSFSSSFSSFSSFFFSFF	NULL	NULL	NULL	TrialProc	Relevant	BlockList	1	1	0	131467	10	130977	1	646	131623
TRSEscan	1141	1	60.002	1	-1344743539	8/11/2010	10:51:16	1	BlockProc	SessionList	2	1	2	11	NULL	NULL	NULL	NULL	11	2	11	Scenes	NULL	NULL	NULL	Faces	1	6390	0	142867	10	136577	1	NULL	NULL	scene/s_004.bmp	NULL	NULL	NULL	NULL	NULL	NULL	Repeat	SFFSFSSSFSSFSSFFFSFF	NULL	NULL	NULL	TrialProc	Irrelevant	BlockList	1	1	0	136467	10	135977	1	325	136302
TRSEscan	1141	1	60.002	1	-1344743539	8/11/2010	10:51:16	1	BlockProc	SessionList	2	1	2	12	NULL	NULL	NULL	NULL	12	2	12	Scenes	NULL	NULL	NULL	Faces	1	2390	0	145867	10	143577	0	NULL	NULL	scene/s_020.bmp	NULL	NULL	NULL	NULL	NULL	NULL	Novel	SFFSFSSSFSSFSSFFFSFF	NULL	NULL	NULL	TrialProc	Irrelevant	BlockList	1	1	0	143467	10	142977	1	445	143422
TRSEscan	1141	1	60.002	1	-1344743539	8/11/2010	10:51:16	1	BlockProc	SessionList	2	1	2	13	NULL	NULL	NULL	NULL	13	2	13	Faces	NULL	NULL	NULL	Faces	2	4390	0	150867	10	146577	2	NULL	NULL	face/f_038.bmp	NULL	NULL	NULL	NULL	NULL	NULL	Repeat	SFFSFSSSFSSFSSFFFSFF	NULL	NULL	NULL	TrialProc	Relevant	BlockList	0	2	0	146467	10	145977	1	541	146518
TRSEscan	1141	1	60.002	1	-1344743539	8/11/2010	10:51:16	1	BlockProc	SessionList	2	1	2	14	NULL	NULL	NULL	NULL	14	2	14	Scenes	NULL	NULL	NULL	Faces	1	2390	0	153867	10	151577	1	NULL	NULL	scene/s_020.bmp	NULL	NULL	NULL	NULL	NULL	NULL	Repeat	SFFSFSSSFSSFSSFFFSFF	NULL	NULL	NULL	TrialProc	Irrelevant	BlockList	1	1	0	151467	10	150977	1	421	151398
TRSEscan	1141	1	60.002	1	-1344743539	8/11/2010	10:51:16	1	BlockProc	SessionList	2	1	2	15	NULL	NULL	NULL	NULL	15	2	15	Scenes	NULL	NULL	NULL	Faces	1	6390	0	160867	10	154577	0	NULL	NULL	scene/s_442.bmp	NULL	NULL	NULL	NULL	NULL	NULL	Novel	SFFSFSSSFSSFSSFFFSFF	NULL	NULL	NULL	TrialProc	Irrelevant	BlockList	1	1	0	154467	10	153977	1	469	154446
TRSEscan	1141	1	60.002	1	-1344743539	8/11/2010	10:51:16	1	BlockProc	SessionList	2	1	2	16	NULL	NULL	NULL	NULL	16	2	16	Faces	NULL	NULL	NULL	Faces	2	6390	0	167867	10	161577	2	NULL	NULL	face/f_038.bmp	NULL	NULL	NULL	NULL	NULL	NULL	Repeat	SFFSFSSSFSSFSSFFFSFF	NULL	NULL	NULL	TrialProc	Relevant	BlockList	1	2	0	161467	10	160977	2	653	161630
TRSEscan	1141	1	60.002	1	-1344743539	8/11/2010	10:51:16	1	BlockProc	SessionList	2	1	2	17	NULL	NULL	NULL	NULL	17	2	17	Faces	NULL	NULL	NULL	Faces	1	2390	0	170866	10	168576	0	NULL	NULL	face/f_012.bmp	NULL	NULL	NULL	NULL	NULL	NULL	Novel	SFFSFSSSFSSFSSFFFSFF	NULL	NULL	NULL	TrialProc	Relevant	BlockList	1	1	0	168466	9	167976	1	662	168638
TRSEscan	1141	1	60.002	1	-1344743539	8/11/2010	10:51:16	1	BlockProc	SessionList	2	1	2	18	NULL	NULL	NULL	NULL	18	2	18	Faces	NULL	NULL	NULL	Faces	2	4390	0	175866	10	171576	0	NULL	NULL	face/f_012.bmp	NULL	NULL	NULL	NULL	NULL	NULL	Repeat	SFFSFSSSFSSFSSFFFSFF	NULL	NULL	NULL	TrialProc	Relevant	BlockList	1	2	0	171466	10	170976	2	646	171622
TRSEscan	1141	1	60.002	1	-1344743539	8/11/2010	10:51:16	1	BlockProc	SessionList	2	1	2	19	NULL	NULL	NULL	NULL	19	2	19	Scenes	NULL	NULL	NULL	Faces	1	2390	0	178866	10	176576	3	NULL	NULL	scene/s_404.bmp	NULL	NULL	NULL	NULL	NULL	NULL	Novel	SFFSFSSSFSSFSSFFFSFF	NULL	NULL	NULL	TrialProc	Irrelevant	BlockList	1	1	0	176466	10	175976	1	509	176485
TRSEscan	1141	1	60.002	1	-1344743539	8/11/2010	10:51:16	1	BlockProc	SessionList	2	1	2	20	NULL	NULL	NULL	NULL	20	2	20	Faces	NULL	NULL	NULL	Faces	1	6390	0	185866	10	179576	1	NULL	NULL	face/f_030.bmp	NULL	NULL	NULL	NULL	NULL	NULL	Novel	SFFSFSSSFSSFSSFFFSFF	NULL	NULL	NULL	TrialProc	Relevant	BlockList	1	1	0	179466	10	178976	1	741	179717
TRSEscan	1141	1	60.002	1	-1344743539	8/11/2010	10:51:16	1	BlockProc	SessionList	2	1	2	21	NULL	NULL	NULL	NULL	21	2	21	Faces	NULL	NULL	NULL	Faces	1	4390	0	190866	10	186576	0	NULL	NULL	face/m_116.bmp	NULL	NULL	NULL	NULL	NULL	NULL	Novel	SFFSFSSSFSSFSSFFFSFF	NULL	NULL	NULL	TrialProc	Relevant	BlockList	1	1	0	186466	10	185976	1	645	186621
TRSEscan	1141	1	60.002	1	-1344743539	8/11/2010	10:51:16	1	BlockProc	SessionList	2	1	2	22	NULL	NULL	NULL	NULL	22	2	22		NULL	NULL	NULL	Faces			NULL	NULL	NULL	NULL		205865	203975		NULL	NULL	NULL	NULL	NULL	NULL			NULL	NULL	NULL	FeedbackProc		BlockList	NULL	NULL	NULL	NULL	NULL	NULL	NULL	NULL	NULL
TRSEscan	1141	1	60.002	1	-1344743539	8/11/2010	10:51:16	2	BlockProc	SessionList	2	1	3	1	-999999	210709	10	205975	1	3	23		1	2	1688	Scenes			NULL	NULL	NULL	NULL		NULL	NULL		224556	1	213426	0	225548	224558			0	227448	225558	InstrProc		BlockList	NULL	NULL	NULL	NULL	NULL	NULL	NULL	NULL	NULL
TRSEscan	1141	1	60.002	1	-1344743539	8/11/2010	10:51:16	2	BlockProc	SessionList	2	1	3	2	NULL	NULL	NULL	NULL	2	3	24	Scenes	NULL	NULL	NULL	Scenes	1	4390	0	232448	10	228158	0	NULL	NULL	scene/s_325.bmp	NULL	NULL	NULL	NULL	NULL	NULL	Novel	SFFSFSSSFSSFSSFFFSFF	NULL	NULL	NULL	TrialProc	Relevant	BlockList	1	1	0	228048	10	227558	1	590	228148
TRSEscan	1141	1	60.002	1	-1344743539	8/11/2010	10:51:16	2	BlockProc	SessionList	2	1	3	3	NULL	NULL	NULL	NULL	3	3	25	Faces	NULL	NULL	NULL	Scenes	1	2390	0	235448	10	233158	1	NULL	NULL	face/f_114.bmp	NULL	NULL	NULL	NULL	NULL	NULL	Novel	SFFSFSSSFSSFSSFFFSFF	NULL	NULL	NULL	TrialProc	Irrelevant	BlockList	1	1	0	233048	10	232558	1	566	233124
TRSEscan	1141	1	60.002	1	-1344743539	8/11/2010	10:51:16	2	BlockProc	SessionList	2	1	3	4	NULL	NULL	NULL	NULL	4	3	26	Faces	NULL	NULL	NULL	Scenes	1	2390	0	238448	10	236158	0	NULL	NULL	face/f_036.bmp	NULL	NULL	NULL	NULL	NULL	NULL	Novel	SFFSFSSSFSSFSSFFFSFF	NULL	NULL	NULL	TrialProc	Irrelevant	BlockList	1	1	0	236048	10	235558	1	430	235988
TRSEscan	1141	1	60.002	1	-1344743539	8/11/2010	10:51:16	2	BlockProc	SessionList	2	1	3	5	NULL	NULL	NULL	NULL	5	3	27	Scenes	NULL	NULL	NULL	Scenes	1	4390	0	243448	10	239158	2	NULL	NULL	scene/s_189.bmp	NULL	NULL	NULL	NULL	NULL	NULL	Novel	SFFSFSSSFSSFSSFFFSFF	NULL	NULL	NULL	TrialProc	Relevant	BlockList	1	1	0	239048	10	238558	1	558	239116
TRSEscan	1141	1	60.002	1	-1344743539	8/11/2010	10:51:16	2	BlockProc	SessionList	2	1	3	6	NULL	NULL	NULL	NULL	6	3	28	Faces	NULL	NULL	NULL	Scenes	1	6390	0	250448	10	244158	1	NULL	NULL	face/f_036.bmp	NULL	NULL	NULL	NULL	NULL	NULL	Repeat	SFFSFSSSFSSFSSFFFSFF	NULL	NULL	NULL	TrialProc	Irrelevant	BlockList	1	1	0	244048	10	243558	1	342	243900
TRSEscan	1141	1	60.002	1	-1344743539	8/11/2010	10:51:16	2	BlockProc	SessionList	2	1	3	7	NULL	NULL	NULL	NULL	7	3	29	Scenes	NULL	NULL	NULL	Scenes	2	6390	0	257448	10	251158	1	NULL	NULL	scene/s_189.bmp	NULL	NULL	NULL	NULL	NULL	NULL	Repeat	SFFSFSSSFSSFSSFFFSFF	NULL	NULL	NULL	TrialProc	Relevant	BlockList	1	2	0	251048	10	250558	2	566	251124
TRSEscan	1141	1	60.002	1	-1344743539	8/11/2010	10:51:16	2	BlockProc	SessionList	2	1	3	8	NULL	NULL	NULL	NULL	8	3	30	Scenes	NULL	NULL	NULL	Scenes	1	4390	0	262447	10	258157	0	NULL	NULL	scene/s_409.bmp	NULL	NULL	NULL	NULL	NULL	NULL	Novel	SFFSFSSSFSSFSSFFFSFF	NULL	NULL	NULL	TrialProc	Relevant	BlockList	1	1	0	258047	9	257557	1	462	258019
TRSEscan	1141	1	60.002	1	-1344743539	8/11/2010	10:51:16	2	BlockProc	SessionList	2	1	3	9	NULL	NULL	NULL	NULL	9	3	31	Scenes	NULL	NULL	NULL	Scenes	2	2390	0	265447	10	263157	0	NULL	NULL	scene/s_409.bmp	NULL	NULL	NULL	NULL	NULL	NULL	Repeat	SFFSFSSSFSSFSSFFFSFF	NULL	NULL	NULL	TrialProc	Relevant	BlockList	1	2	0	263047	10	262557	2	558	263115
TRSEscan	1141	1	60.002	1	-1344743539	8/11/2010	10:51:16	2	BlockProc	SessionList	2	1	3	10	NULL	NULL	NULL	NULL	10	3	32	Faces	NULL	NULL	NULL	Scenes	1	4390	0	270447	10	266157	3	NULL	NULL	face/f_112.bmp	NULL	NULL	NULL	NULL	NULL	NULL	Novel	SFFSFSSSFSSFSSFFFSFF	NULL	NULL	NULL	TrialProc	Irrelevant	BlockList	1	1	0	266047	10	265557	1	438	265995
TRSEscan	1141	1	60.002	1	-1344743539	8/11/2010	10:51:16	2	BlockProc	SessionList	2	1	3	11	NULL	NULL	NULL	NULL	11	3	33	Scenes	NULL	NULL	NULL	Scenes	2	6390	0	277447	10	271157	1	NULL	NULL	scene/s_409.bmp	NULL	NULL	NULL	NULL	NULL	NULL	Repeat	SFFSFSSSFSSFSSFFFSFF	NULL	NULL	NULL	TrialProc	Relevant	BlockList	1	2	0	271047	10	270557	2	606	271163
TRSEscan	1141	1	60.002	1	-1344743539	8/11/2010	10:51:16	2	BlockProc	SessionList	2	1	3	12	NULL	NULL	NULL	NULL	12	3	34	Scenes	NULL	NULL	NULL	Scenes	1	2390	0	280447	10	278157	0	NULL	NULL	scene/s_371.bmp	NULL	NULL	NULL	NULL	NULL	NULL	Novel	SFFSFSSSFSSFSSFFFSFF	NULL	NULL	NULL	TrialProc	Relevant	BlockList	1	1	0	278047	10	277557	1	486	278043
TRSEscan	1141	1	60.002	1	-1344743539	8/11/2010	10:51:16	2	BlockProc	SessionList	2	1	3	13	NULL	NULL	NULL	NULL	13	3	35	Faces	NULL	NULL	NULL	Scenes	1	4390	0	285447	10	281157	2	NULL	NULL	face/f_112.bmp	NULL	NULL	NULL	NULL	NULL	NULL	Repeat	SFFSFSSSFSSFSSFFFSFF	NULL	NULL	NULL	TrialProc	Irrelevant	BlockList	1	1	0	281047	10	280557	1	526	281083
TRSEscan	1141	1	60.002	1	-1344743539	8/11/2010	10:51:16	2	BlockProc	SessionList	2	1	3	14	NULL	NULL	NULL	NULL	14	3	36	Scenes	NULL	NULL	NULL	Scenes	2	2390	0	288447	10	286157	1	NULL	NULL	scene/s_371.bmp	NULL	NULL	NULL	NULL	NULL	NULL	Repeat	SFFSFSSSFSSFSSFFFSFF	NULL	NULL	NULL	TrialProc	Relevant	BlockList	1	2	0	286047	10	285557	2	454	286011
TRSEscan	1141	1	60.002	1	-1344743539	8/11/2010	10:51:16	2	BlockProc	SessionList	2	1	3	15	NULL	NULL	NULL	NULL	15	3	37	Scenes	NULL	NULL	NULL	Scenes	1	6390	0	295447	10	289157	0	NULL	NULL	scene/s_136.bmp	NULL	NULL	NULL	NULL	NULL	NULL	Novel	SFFSFSSSFSSFSSFFFSFF	NULL	NULL	NULL	TrialProc	Relevant	BlockList	1	1	0	289047	10	288557	1	502	289059
TRSEscan	1141	1	60.002	1	-1344743539	8/11/2010	10:51:16	2	BlockProc	SessionList	2	1	3	16	NULL	NULL	NULL	NULL	16	3	38	Faces	NULL	NULL	NULL	Scenes	1	6390	0	302446	10	296156	2	NULL	NULL	face/f_112.bmp	NULL	NULL	NULL	NULL	NULL	NULL	Repeat	SFFSFSSSFSSFSSFFFSFF	NULL	NULL	NULL	TrialProc	Irrelevant	BlockList	1	1	0	296046	9	295556	1	470	296026
TRSEscan	1141	1	60.002	1	-1344743539	8/11/2010	10:51:16	2	BlockProc	SessionList	2	1	3	17	NULL	NULL	NULL	NULL	17	3	39	Faces	NULL	NULL	NULL	Scenes	1	2390	0	305446	10	303156	0	NULL	NULL	face/m_135.bmp	NULL	NULL	NULL	NULL	NULL	NULL	Novel	SFFSFSSSFSSFSSFFFSFF	NULL	NULL	NULL	TrialProc	Irrelevant	BlockList	1	1	0	303046	10	302556	1	630	303186
TRSEscan	1141	1	60.002	1	-1344743539	8/11/2010	10:51:16	2	BlockProc	SessionList	2	1	3	18	NULL	NULL	NULL	NULL	18	3	40	Faces	NULL	NULL	NULL	Scenes	1	4390	0	310446	10	306156	0	NULL	NULL	face/m_135.bmp	NULL	NULL	NULL	NULL	NULL	NULL	Repeat	SFFSFSSSFSSFSSFFFSFF	NULL	NULL	NULL	TrialProc	Irrelevant	BlockList	1	1	0	306046	10	305556	1	430	305986
TRSEscan	1141	1	60.002	1	-1344743539	8/11/2010	10:51:16	2	BlockProc	SessionList	2	1	3	19	NULL	NULL	NULL	NULL	19	3	41	Scenes	NULL	NULL	NULL	Scenes	1	2390	0	313446	10	311156	3	NULL	NULL	scene/s_378.bmp	NULL	NULL	NULL	NULL	NULL	NULL	Novel	SFFSFSSSFSSFSSFFFSFF	NULL	NULL	NULL	TrialProc	Relevant	BlockList	1	1	0	311046	10	310556	1	494	311050
TRSEscan	1141	1	60.002	1	-1344743539	8/11/2010	10:51:16	2	BlockProc	SessionList	2	1	3	20	NULL	NULL	NULL	NULL	20	3	42	Faces	NULL	NULL	NULL	Scenes	1	6390	0	320446	10	314156	1	NULL	NULL	face/m_053.bmp	NULL	NULL	NULL	NULL	NULL	NULL	Novel	SFFSFSSSFSSFSSFFFSFF	NULL	NULL	NULL	TrialProc	Irrelevant	BlockList	1	1	0	314046	10	313556	1	502	314058
TRSEscan	1141	1	60.002	1	-1344743539	8/11/2010	10:51:16	2	BlockProc	SessionList	2	1	3	21	NULL	NULL	NULL	NULL	21	3	43	Faces	NULL	NULL	NULL	Scenes	1	4390	0	325446	10	321156	0	NULL	NULL	face/f_145.bmp	NULL	NULL	NULL	NULL	NULL	NULL	Novel	SFFSFSSSFSSFSSFFFSFF	NULL	NULL	NULL	TrialProc	Irrelevant	BlockList	1	1	0	321046	10	320556	1	630	321186
TRSEscan	1141	1	60.002	1	-1344743539	8/11/2010	10:51:16	2	BlockProc	SessionList	2	1	3	22	NULL	NULL	NULL	NULL	22	3	44		NULL	NULL	NULL	Scenes			NULL	NULL	NULL	NULL		340445	338555		NULL	NULL	NULL	NULL	NULL	NULL			NULL	NULL	NULL	FeedbackProc		BlockList	NULL	NULL	NULL	NULL	NULL	NULL	NULL	NULL	NULL
TRSEscan	1141	1	60.002	1	-1344743539	8/11/2010	10:51:16	3	BlockProc	SessionList	2	1	4	1	-999999	346577	10	340555	1	4	45		1	2	1700	Categorize			NULL	NULL	NULL	NULL		NULL	NULL		359217	1	349306	0	360212	359222			0	362112	360222	InstrProc		BlockList	NULL	NULL	NULL	NULL	NULL	NULL	NULL	NULL	NULL
TRSEscan	1141	1	60.002	1	-1344743539	8/11/2010	10:51:16	3	BlockProc	SessionList	2	1	4	2	NULL	NULL	NULL	NULL	2	4	46	Scenes	NULL	NULL	NULL	Categorize	2	4390	0	367112	10	362822	0	NULL	NULL	scene/s_301.bmp	NULL	NULL	NULL	NULL	NULL	NULL	Novel	SFFSFSSSFSSFSSFFFSFF	NULL	NULL	NULL	TrialProc	Irrelevant	BlockList	1	2	0	362712	10	362222	2	427	362649
TRSEscan	1141	1	60.002	1	-1344743539	8/11/2010	10:51:16	3	BlockProc	SessionList	2	1	4	3	NULL	NULL	NULL	NULL	3	4	47	Faces	NULL	NULL	NULL	Categorize	1	2390	0	370111	10	367821	1	NULL	NULL	face/m_055.bmp	NULL	NULL	NULL	NULL	NULL	NULL	Novel	SFFSFSSSFSSFSSFFFSFF	NULL	NULL	NULL	TrialProc	Irrelevant	BlockList	1	1	0	367711	9	367221	1	556	367777
TRSEscan	1141	1	60.002	1	-1344743539	8/11/2010	10:51:16	3	BlockProc	SessionList	2	1	4	4	NULL	NULL	NULL	NULL	4	4	48	Faces	NULL	NULL	NULL	Categorize	1	2390	0	373111	10	370821	0	NULL	NULL	face/m_129.bmp	NULL	NULL	NULL	NULL	NULL	NULL	Novel	SFFSFSSSFSSFSSFFFSFF	NULL	NULL	NULL	TrialProc	Irrelevant	BlockList	1	1	0	370711	10	370221	1	556	370777
TRSEscan	1141	1	60.002	1	-1344743539	8/11/2010	10:51:16	3	BlockProc	SessionList	2	1	4	5	NULL	NULL	NULL	NULL	5	4	49	Scenes	NULL	NULL	NULL	Categorize	2	4390	0	378111	10	373821	2	NULL	NULL	scene/s_141.bmp	NULL	NULL	NULL	NULL	NULL	NULL	Novel	SFFSFSSSFSSFSSFFFSFF	NULL	NULL	NULL	TrialProc	Irrelevant	BlockList	1	2	0	373711	10	373221	2	508	373729
TRSEscan	1141	1	60.002	1	-1344743539	8/11/2010	10:51:16	3	BlockProc	SessionList	2	1	4	6	NULL	NULL	NULL	NULL	6	4	50	Faces	NULL	NULL	NULL	Categorize	1	6390	0	385111	10	378821	1	NULL	NULL	face/m_129.bmp	NULL	NULL	NULL	NULL	NULL	NULL	Repeat	SFFSFSSSFSSFSSFFFSFF	NULL	NULL	NULL	TrialProc	Irrelevant	BlockList	1	1	0	378711	10	378221	1	443	378664
TRSEscan	1141	1	60.002	1	-1344743539	8/11/2010	10:51:16	3	BlockProc	SessionList	2	1	4	7	NULL	NULL	NULL	NULL	7	4	51	Scenes	NULL	NULL	NULL	Categorize	2	6390	0	392111	10	385821	1	NULL	NULL	scene/s_141.bmp	NULL	NULL	NULL	NULL	NULL	NULL	Repeat	SFFSFSSSFSSFSSFFFSFF	NULL	NULL	NULL	TrialProc	Irrelevant	BlockList	1	2	0	385711	10	385221	2	635	385856
TRSEscan	1141	1	60.002	1	-1344743539	8/11/2010	10:51:16	3	BlockProc	SessionList	2	1	4	8	NULL	NULL	NULL	NULL	8	4	52	Scenes	NULL	NULL	NULL	Categorize	2	4390	0	397111	10	392821	0	NULL	NULL	scene/s_264.bmp	NULL	NULL	NULL	NULL	NULL	NULL	Novel	SFFSFSSSFSSFSSFFFSFF	NULL	NULL	NULL	TrialProc	Irrelevant	BlockList	1	2	0	392711	10	392221	2	483	392704
TRSEscan	1141	1	60.002	1	-1344743539	8/11/2010	10:51:16	3	BlockProc	SessionList	2	1	4	9	NULL	NULL	NULL	NULL	9	4	53	Scenes	NULL	NULL	NULL	Categorize	2	2390	0	400111	10	397821	0	NULL	NULL	scene/s_264.bmp	NULL	NULL	NULL	NULL	NULL	NULL	Repeat	SFFSFSSSFSSFSSFFFSFF	NULL	NULL	NULL	TrialProc	Irrelevant	BlockList	1	2	0	397711	10	397221	2	547	397768
TRSEscan	1141	1	60.002	1	-1344743539	8/11/2010	10:51:16	3	BlockProc	SessionList	2	1	4	10	NULL	NULL	NULL	NULL	10	4	54	Faces	NULL	NULL	NULL	Categorize	1	4390	0	405111	10	400821	3	NULL	NULL	face/f_135.bmp	NULL	NULL	NULL	NULL	NULL	NULL	Novel	SFFSFSSSFSSFSSFFFSFF	NULL	NULL	NULL	TrialProc	Irrelevant	BlockList	1	1	0	400711	10	400221	1	523	400744
TRSEscan	1141	1	60.002	1	-1344743539	8/11/2010	10:51:16	3	BlockProc	SessionList	2	1	4	11	NULL	NULL	NULL	NULL	11	4	55	Scenes	NULL	NULL	NULL	Categorize	2	6390	0	412110	10	405820	1	NULL	NULL	scene/s_264.bmp	NULL	NULL	NULL	NULL	NULL	NULL	Repeat	SFFSFSSSFSSFSSFFFSFF	NULL	NULL	NULL	TrialProc	Irrelevant	BlockList	1	2	0	405710	9	405220	2	364	405584
TRSEscan	1141	1	60.002	1	-1344743539	8/11/2010	10:51:16	3	BlockProc	SessionList	2	1	4	12	NULL	NULL	NULL	NULL	12	4	56	Scenes	NULL	NULL	NULL	Categorize	2	2390	0	415110	10	412820	0	NULL	NULL	scene/s_063.bmp	NULL	NULL	NULL	NULL	NULL	NULL	Novel	SFFSFSSSFSSFSSFFFSFF	NULL	NULL	NULL	TrialProc	Irrelevant	BlockList	1	2	0	412710	10	412220	2	580	412800
TRSEscan	1141	1	60.002	1	-1344743539	8/11/2010	10:51:16	3	BlockProc	SessionList	2	1	4	13	NULL	NULL	NULL	NULL	13	4	57	Faces	NULL	NULL	NULL	Categorize	1	4390	0	420110	10	415820	2	NULL	NULL	face/f_135.bmp	NULL	NULL	NULL	NULL	NULL	NULL	Repeat	SFFSFSSSFSSFSSFFFSFF	NULL	NULL	NULL	TrialProc	Irrelevant	BlockList	1	1	0	415710	10	415220	1	564	415784
TRSEscan	1141	1	60.002	1	-1344743539	8/11/2010	10:51:16	3	BlockProc	SessionList	2	1	4	14	NULL	NULL	NULL	NULL	14	4	58	Scenes	NULL	NULL	NULL	Categorize	2	2390	0	423110	10	420820	1	NULL	NULL	scene/s_063.bmp	NULL	NULL	NULL	NULL	NULL	NULL	Repeat	SFFSFSSSFSSFSSFFFSFF	NULL	NULL	NULL	TrialProc	Irrelevant	BlockList	1	2	0	420710	10	420220	2	419	420639
TRSEscan	1141	1	60.002	1	-1344743539	8/11/2010	10:51:16	3	BlockProc	SessionList	2	1	4	15	NULL	NULL	NULL	NULL	15	4	59	Scenes	NULL	NULL	NULL	Categorize	2	6390	0	430110	10	423820	0	NULL	NULL	scene/s_439.bmp	NULL	NULL	NULL	NULL	NULL	NULL	Novel	SFFSFSSSFSSFSSFFFSFF	NULL	NULL	NULL	TrialProc	Irrelevant	BlockList	1	2	0	423710	10	423220	2	483	423703
TRSEscan	1141	1	60.002	1	-1344743539	8/11/2010	10:51:16	3	BlockProc	SessionList	2	1	4	16	NULL	NULL	NULL	NULL	16	4	60	Faces	NULL	NULL	NULL	Categorize	1	6390	0	437110	10	430820	2	NULL	NULL	face/f_135.bmp	NULL	NULL	NULL	NULL	NULL	NULL	Repeat	SFFSFSSSFSSFSSFFFSFF	NULL	NULL	NULL	TrialProc	Irrelevant	BlockList	1	1	0	430710	10	430220	1	539	430759
TRSEscan	1141	1	60.002	1	-1344743539	8/11/2010	10:51:16	3	BlockProc	SessionList	2	1	4	17	NULL	NULL	NULL	NULL	17	4	61	Faces	NULL	NULL	NULL	Categorize	1	2390	0	440110	10	437820	0	NULL	NULL	face/m_033.bmp	NULL	NULL	NULL	NULL	NULL	NULL	Novel	SFFSFSSSFSSFSSFFFSFF	NULL	NULL	NULL	TrialProc	Irrelevant	BlockList	1	1	0	437710	10	437220	1	435	437655
TRSEscan	1141	1	60.002	1	-1344743539	8/11/2010	10:51:16	3	BlockProc	SessionList	2	1	4	18	NULL	NULL	NULL	NULL	18	4	62	Faces	NULL	NULL	NULL	Categorize	1	4390	0	445110	10	440820	0	NULL	NULL	face/m_033.bmp	NULL	NULL	NULL	NULL	NULL	NULL	Repeat	SFFSFSSSFSSFSSFFFSFF	NULL	NULL	NULL	TrialProc	Irrelevant	BlockList	1	1	0	440710	10	440220	1	443	440663
TRSEscan	1141	1	60.002	1	-1344743539	8/11/2010	10:51:16	3	BlockProc	SessionList	2	1	4	19	NULL	NULL	NULL	NULL	19	4	63	Scenes	NULL	NULL	NULL	Categorize	2	2390	0	448109	10	445819	3	NULL	NULL	scene/s_172.bmp	NULL	NULL	NULL	NULL	NULL	NULL	Novel	SFFSFSSSFSSFSSFFFSFF	NULL	NULL	NULL	TrialProc	Irrelevant	BlockList	1	2	0	445709	9	445219	2	588	445807
TRSEscan	1141	1	60.002	1	-1344743539	8/11/2010	10:51:16	3	BlockProc	SessionList	2	1	4	20	NULL	NULL	NULL	NULL	20	4	64	Faces	NULL	NULL	NULL	Categorize	1	6390	0	455109	10	448819	1	NULL	NULL	face/f_081.bmp	NULL	NULL	NULL	NULL	NULL	NULL	Novel	SFFSFSSSFSSFSSFFFSFF	NULL	NULL	NULL	TrialProc	Irrelevant	BlockList	1	1	0	448709	10	448219	1	508	448727
TRSEscan	1141	1	60.002	1	-1344743539	8/11/2010	10:51:16	3	BlockProc	SessionList	2	1	4	21	NULL	NULL	NULL	NULL	21	4	65	Faces	NULL	NULL	NULL	Categorize	1	4390	0	460109	10	455819	0	NULL	NULL	face/m_035.bmp	NULL	NULL	NULL	NULL	NULL	NULL	Novel	SFFSFSSSFSSFSSFFFSFF	NULL	NULL	NULL	TrialProc	Irrelevant	BlockList	1	1	0	455709	10	455219	1	476	455695
TRSEscan	1141	1	60.002	1	-1344743539	8/11/2010	10:51:16	3	BlockProc	SessionList	2	1	4	22	NULL	NULL	NULL	NULL	22	4	66		NULL	NULL	NULL	Categorize			NULL	NULL	NULL	NULL		475109	473219		NULL	NULL	NULL	NULL	NULL	NULL			NULL	NULL	NULL	FeedbackProc		BlockList	NULL	NULL	NULL	NULL	NULL	NULL	NULL	NULL	NULL
TRSEscan	1141	1	60.002	1	-1344743539	8/11/2010	10:51:16	4	BlockProc	SessionList	2	1	5	1	-999999	480126	10	475219	1	5	67		1	2	2775	Both			NULL	NULL	NULL	NULL		NULL	NULL		493630	1	483920	0	494625	493635			0	496525	494635	InstrProc		BlockList	NULL	NULL	NULL	NULL	NULL	NULL	NULL	NULL	NULL
TRSEscan	1141	1	60.002	1	-1344743539	8/11/2010	10:51:16	4	BlockProc	SessionList	2	1	5	2	NULL	NULL	NULL	NULL	2	5	68	Scenes	NULL	NULL	NULL	Both	1	4390	0	501525	10	497235	0	NULL	NULL	scene/s_165.bmp	NULL	NULL	NULL	NULL	NULL	NULL	Novel	SFFSFSSSFSSFSSFFFSFF	NULL	NULL	NULL	TrialProc	Relevant	BlockList	1	1	0	497125	10	496635	1	355	496990
TRSEscan	1141	1	60.002	1	-1344743539	8/11/2010	10:51:16	4	BlockProc	SessionList	2	1	5	3	NULL	NULL	NULL	NULL	3	5	69	Faces	NULL	NULL	NULL	Both	1	2390	0	504525	10	502235	1	NULL	NULL	face/f_111.bmp	NULL	NULL	NULL	NULL	NULL	NULL	Novel	SFFSFSSSFSSFSSFFFSFF	NULL	NULL	NULL	TrialProc	Relevant	BlockList	1	1	0	502125	10	501635	1	458	502093
TRSEscan	1141	1	60.002	1	-1344743539	8/11/2010	10:51:16	4	BlockProc	SessionList	2	1	5	4	NULL	NULL	NULL	NULL	4	5	70	Faces	NULL	NULL	NULL	Both	1	2390	0	507525	10	505235	0	NULL	NULL	face/f_139.bmp	NULL	NULL	NULL	NULL	NULL	NULL	Novel	SFFSFSSSFSSFSSFFFSFF	NULL	NULL	NULL	TrialProc	Relevant	BlockList	1	1	0	505125	10	504635	1	578	505213
TRSEscan	1141	1	60.002	1	-1344743539	8/11/2010	10:51:16	4	BlockProc	SessionList	2	1	5	5	NULL	NULL	NULL	NULL	5	5	71	Scenes	NULL	NULL	NULL	Both	1	4390	0	512525	10	508235	2	NULL	NULL	scene/s_385.bmp	NULL	NULL	NULL	NULL	NULL	NULL	Novel	SFFSFSSSFSSFSSFFFSFF	NULL	NULL	NULL	TrialProc	Relevant	BlockList	1	1	0	508125	10	507635	1	594	508229
TRSEscan	1141	1	60.002	1	-1344743539	8/11/2010	10:51:16	4	BlockProc	SessionList	2	1	5	6	NULL	NULL	NULL	NULL	6	5	72	Faces	NULL	NULL	NULL	Both	2	6390	0	519524	10	513234	1	NULL	NULL	face/f_139.bmp	NULL	NULL	NULL	NULL	NULL	NULL	Repeat	SFFSFSSSFSSFSSFFFSFF	NULL	NULL	NULL	TrialProc	Relevant	BlockList	1	2	0	513124	9	512634	2	595	513229
TRSEscan	1141	1	60.002	1	-1344743539	8/11/2010	10:51:16	4	BlockProc	SessionList	2	1	5	7	NULL	NULL	NULL	NULL	7	5	73	Scenes	NULL	NULL	NULL	Both	2	6390	0	526524	10	520234	1	NULL	NULL	scene/s_385.bmp	NULL	NULL	NULL	NULL	NULL	NULL	Repeat	SFFSFSSSFSSFSSFFFSFF	NULL	NULL	NULL	TrialProc	Relevant	BlockList	1	2	0	520124	10	519634	2	531	520165
TRSEscan	1141	1	60.002	1	-1344743539	8/11/2010	10:51:16	4	BlockProc	SessionList	2	1	5	8	NULL	NULL	NULL	NULL	8	5	74	Scenes	NULL	NULL	NULL	Both	1	4390	0	531524	10	527234	0	NULL	NULL	scene/s_050.bmp	NULL	NULL	NULL	NULL	NULL	NULL	Novel	SFFSFSSSFSSFSSFFFSFF	NULL	NULL	NULL	TrialProc	Relevant	BlockList	1	1	0	527124	10	526634	1	571	527205
TRSEscan	1141	1	60.002	1	-1344743539	8/11/2010	10:51:16	4	BlockProc	SessionList	2	1	5	9	NULL	NULL	NULL	NULL	9	5	75	Scenes	NULL	NULL	NULL	Both	2	2390	0	534524	10	532234	0	NULL	NULL	scene/s_050.bmp	NULL	NULL	NULL	NULL	NULL	NULL	Repeat	SFFSFSSSFSSFSSFFFSFF	NULL	NULL	NULL	TrialProc	Relevant	BlockList	0	2	0	532124	10	531634	1	451	532085
TRSEscan	1141	1	60.002	1	-1344743539	8/11/2010	10:51:16	4	BlockProc	SessionList	2	1	5	10	NULL	NULL	NULL	NULL	10	5	76	Faces	NULL	NULL	NULL	Both	1	4390	0	539524	10	535234	3	NULL	NULL	face/f_044.bmp	NULL	NULL	NULL	NULL	NULL	NULL	Novel	SFFSFSSSFSSFSSFFFSFF	NULL	NULL	NULL	TrialProc	Relevant	BlockList	1	1	0	535124	10	534634	1	1035	535669
TRSEscan	1141	1	60.002	1	-1344743539	8/11/2010	10:51:16	4	BlockProc	SessionList	2	1	5	11	NULL	NULL	NULL	NULL	11	5	77	Scenes	NULL	NULL	NULL	Both	2	6390	0	546524	10	540234	1	NULL	NULL	scene/s_050.bmp	NULL	NULL	NULL	NULL	NULL	NULL	Repeat	SFFSFSSSFSSFSSFFFSFF	NULL	NULL	NULL	TrialProc	Relevant	BlockList	1	2	0	540124	10	539634	2	578	540212
TRSEscan	1141	1	60.002	1	-1344743539	8/11/2010	10:51:16	4	BlockProc	SessionList	2	1	5	12	NULL	NULL	NULL	NULL	12	5	78	Scenes	NULL	NULL	NULL	Both	1	2390	0	549524	10	547234	0	NULL	NULL	scene/s_273.bmp	NULL	NULL	NULL	NULL	NULL	NULL	Novel	SFFSFSSSFSSFSSFFFSFF	NULL	NULL	NULL	TrialProc	Relevant	BlockList	0	1	0	547124	10	546634	2	730	547364
TRSEscan	1141	1	60.002	1	-1344743539	8/11/2010	10:51:16	4	BlockProc	SessionList	2	1	5	13	NULL	NULL	NULL	NULL	13	5	79	Faces	NULL	NULL	NULL	Both	2	4390	0	554523	9	550233	2	NULL	NULL	face/f_044.bmp	NULL	NULL	NULL	NULL	NULL	NULL	Repeat	SFFSFSSSFSSFSSFFFSFF	NULL	NULL	NULL	TrialProc	Relevant	BlockList	1	2	0	550124	10	549634	2	890	550524
TRSEscan	1141	1	60.002	1	-1344743539	8/11/2010	10:51:16	4	BlockProc	SessionList	2	1	5	14	NULL	NULL	NULL	NULL	14	5	80	Scenes	NULL	NULL	NULL	Both	2	2390	0	557523	10	555233	1	NULL	NULL	scene/s_273.bmp	NULL	NULL	NULL	NULL	NULL	NULL	Repeat	SFFSFSSSFSSFSSFFFSFF	NULL	NULL	NULL	TrialProc	Relevant	BlockList	1	2	0	555123	10	554633	2	715	555348
TRSEscan	1141	1	60.002	1	-1344743539	8/11/2010	10:51:16	4	BlockProc	SessionList	2	1	5	15	NULL	NULL	NULL	NULL	15	5	81	Scenes	NULL	NULL	NULL	Both	1	6390	0	564523	10	558233	0	NULL	NULL	scene/s_176.bmp	NULL	NULL	NULL	NULL	NULL	NULL	Novel	SFFSFSSSFSSFSSFFFSFF	NULL	NULL	NULL	TrialProc	Relevant	BlockList	1	1	0	558123	10	557633	1	595	558228
TRSEscan	1141	1	60.002	1	-1344743539	8/11/2010	10:51:16	4	BlockProc	SessionList	2	1	5	16	NULL	NULL	NULL	NULL	16	5	82	Faces	NULL	NULL	NULL	Both	2	6390	0	571523	10	565233	2	NULL	NULL	face/f_044.bmp	NULL	NULL	NULL	NULL	NULL	NULL	Repeat	SFFSFSSSFSSFSSFFFSFF	NULL	NULL	NULL	TrialProc	Relevant	BlockList	1	2	0	565123	10	564633	2	995	565628
TRSEscan	1141	1	60.002	1	-1344743539	8/11/2010	10:51:16	4	BlockProc	SessionList	2	1	5	17	NULL	NULL	NULL	NULL	17	5	83	Faces	NULL	NULL	NULL	Both	1	2390	0	574523	10	572233	0	NULL	NULL	face/m_083.bmp	NULL	NULL	NULL	NULL	NULL	NULL	Novel	SFFSFSSSFSSFSSFFFSFF	NULL	NULL	NULL	TrialProc	Relevant	BlockList	1	1	0	572123	10	571633	1	659	572292
TRSEscan	1141	1	60.002	1	-1344743539	8/11/2010	10:51:16	4	BlockProc	SessionList	2	1	5	18	NULL	NULL	NULL	NULL	18	5	84	Faces	NULL	NULL	NULL	Both	2	4390	0	579523	10	575233	0	NULL	NULL	face/m_083.bmp	NULL	NULL	NULL	NULL	NULL	NULL	Repeat	SFFSFSSSFSSFSSFFFSFF	NULL	NULL	NULL	TrialProc	Relevant	BlockList	1	2	0	575123	10	574633	2	771	575404
TRSEscan	1141	1	60.002	1	-1344743539	8/11/2010	10:51:16	4	BlockProc	SessionList	2	1	5	19	NULL	NULL	NULL	NULL	19	5	85	Scenes	NULL	NULL	NULL	Both	1	2390	0	582523	10	580233	3	NULL	NULL	scene/s_355.bmp	NULL	NULL	NULL	NULL	NULL	NULL	Novel	SFFSFSSSFSSFSSFFFSFF	NULL	NULL	NULL	TrialProc	Relevant	BlockList	1	1	0	580123	10	579633	1	610	580243
TRSEscan	1141	1	60.002	1	-1344743539	8/11/2010	10:51:16	4	BlockProc	SessionList	2	1	5	20	NULL	NULL	NULL	NULL	20	5	86	Faces	NULL	NULL	NULL	Both	1	6390	0	589523	10	583233	1	NULL	NULL	face/f_142.bmp	NULL	NULL	NULL	NULL	NULL	NULL	Novel	SFFSFSSSFSSFSSFFFSFF	NULL	NULL	NULL	TrialProc	Relevant	BlockList	1	1	0	583123	10	582633	1	634	583267
TRSEscan	1141	1	60.002	1	-1344743539	8/11/2010	10:51:16	4	BlockProc	SessionList	2	1	5	21	NULL	NULL	NULL	NULL	21	5	87	Faces	NULL	NULL	NULL	Both	1	4390	0	594523	10	590233	0	NULL	NULL	face/m_119.bmp	NULL	NULL	NULL	NULL	NULL	NULL	Novel	SFFSFSSSFSSFSSFFFSFF	NULL	NULL	NULL	TrialProc	Relevant	BlockList	1	1	0	590123	10	589633	1	610	590243
TRSEscan	1141	1	60.002	1	-1344743539	8/11/2010	10:51:16	4	BlockProc	SessionList	2	1	5	22	NULL	NULL	NULL	NULL	22	5	88		NULL	NULL	NULL	Both			NULL	NULL	NULL	NULL		609522	607632		NULL	NULL	NULL	NULL	NULL	NULL			NULL	NULL	NULL	FeedbackProc		BlockList	NULL	NULL	NULL	NULL	NULL	NULL	NULL	NULL	NULL
TRSEscan	1141	2	60.002	1	-1139158971	8/11/2010	11:01:57	1	BlockProc	SessionList	2	2	1	1	-999999	65361	1	59155	1	2	1		1	2	1165	Scenes			NULL	NULL	NULL	NULL		NULL	NULL		76585	1	67539	0	77578	76588			0	79478	77588	InstrProc		BlockList	NULL	NULL	NULL	NULL	NULL	NULL	NULL	NULL	NULL
TRSEscan	1141	2	60.002	1	-1139158971	8/11/2010	11:01:57	1	BlockProc	SessionList	2	2	1	2	NULL	NULL	NULL	NULL	2	2	2	Faces	NULL	NULL	NULL	Scenes	1	2390	0	82478	10	80188	0	NULL	NULL	face/m_102.bmp	NULL	NULL	NULL	NULL	NULL	NULL	Novel	FFSFFFSSFSSFSSSFSFFS	NULL	NULL	NULL	TrialProc	Irrelevant	BlockList	1	1	0	80078	10	79588	1	789	80377
TRSEscan	1141	2	60.002	1	-1139158971	8/11/2010	11:01:57	1	BlockProc	SessionList	2	2	1	3	NULL	NULL	NULL	NULL	3	2	3	Faces	NULL	NULL	NULL	Scenes	1	4390	0	87478	10	83188	0	NULL	NULL	face/f_085.bmp	NULL	NULL	NULL	NULL	NULL	NULL	Novel	FFSFFFSSFSSFSSSFSFFS	NULL	NULL	NULL	TrialProc	Irrelevant	BlockList	1	1	0	83078	10	82588	1	540	83128
TRSEscan	1141	2	60.002	1	-1139158971	8/11/2010	11:01:57	1	BlockProc	SessionList	2	2	1	4	NULL	NULL	NULL	NULL	4	2	4	Scenes	NULL	NULL	NULL	Scenes	1	6390	0	94478	10	88188	2	NULL	NULL	scene/s_185.bmp	NULL	NULL	NULL	NULL	NULL	NULL	Novel	FFSFFFSSFSSFSSSFSFFS	NULL	NULL	NULL	TrialProc	Relevant	BlockList	1	1	0	88078	10	87588	1	404	87992
TRSEscan	1141	2	60.002	1	-1139158971	8/11/2010	11:01:57	1	BlockProc	SessionList	2	2	1	5	NULL	NULL	NULL	NULL	5	2	5	Faces	NULL	NULL	NULL	Scenes	1	4390	0	99477	10	95187	1	NULL	NULL	face/f_085.bmp	NULL	NULL	NULL	NULL	NULL	NULL	Repeat	FFSFFFSSFSSFSSSFSFFS	NULL	NULL	NULL	TrialProc	Irrelevant	BlockList	1	1	0	95077	9	94587	1	525	95112
TRSEscan	1141	2	60.002	1	-1139158971	8/11/2010	11:01:57	1	BlockProc	SessionList	2	2	1	6	NULL	NULL	NULL	NULL	6	2	6	Faces	NULL	NULL	NULL	Scenes	1	2390	0	102477	10	100187	0	NULL	NULL	face/f_085.bmp	NULL	NULL	NULL	NULL	NULL	NULL	Repeat	FFSFFFSSFSSFSSSFSFFS	NULL	NULL	NULL	TrialProc	Irrelevant	BlockList	1	1	0	100077	10	99587	1	389	99976
TRSEscan	1141	2	60.002	1	-1139158971	8/11/2010	11:01:57	1	BlockProc	SessionList	2	2	1	7	NULL	NULL	NULL	NULL	7	2	7	Faces	NULL	NULL	NULL	Scenes	1	6390	0	109477	10	103187	0	NULL	NULL	face/m_047.bmp	NULL	NULL	NULL	NULL	NULL	NULL	Novel	FFSFFFSSFSSFSSSFSFFS	NULL	NULL	NULL	TrialProc	Irrelevant	BlockList	1	1	0	103077	10	102587	1	421	103008
TRSEscan	1141	2	60.002	1	-1139158971	8/11/2010	11:01:57	1	BlockProc	SessionList	2	2	1	8	NULL	NULL	NULL	NULL	8	2	8	Scenes	NULL	NULL	NULL	Scenes	1	2390	0	112477	10	110187	3	NULL	NULL	scene/s_216.bmp	NULL	NULL	NULL	NULL	NULL	NULL	Novel	FFSFFFSSFSSFSSSFSFFS	NULL	NULL	NULL	TrialProc	Relevant	BlockList	1	1	0	110077	10	109587	1	677	110264
TRSEscan	1141	2	60.002	1	-1139158971	8/11/2010	11:01:57	1	BlockProc	SessionList	2	2	1	9	NULL	NULL	NULL	NULL	9	2	9	Scenes	NULL	NULL	NULL	Scenes	2	4390	0	117477	10	113187	0	NULL	NULL	scene/s_216.bmp	NULL	NULL	NULL	NULL	NULL	NULL	Repeat	FFSFFFSSFSSFSSSFSFFS	NULL	NULL	NULL	TrialProc	Relevant	BlockList	1	2	0	113077	10	112587	2	581	113168
TRSEscan	1141	2	60.002	1	-1139158971	8/11/2010	11:01:57	1	BlockProc	SessionList	2	2	1	10	NULL	NULL	NULL	NULL	10	2	10	Faces	NULL	NULL	NULL	Scenes	1	2390	0	120477	10	118187	2	NULL	NULL	face/m_047.bmp	NULL	NULL	NULL	NULL	NULL	NULL	Repeat	FFSFFFSSFSSFSSSFSFFS	NULL	NULL	NULL	TrialProc	Irrelevant	BlockList	1	1	0	118077	10	117587	1	453	118040
TRSEscan	1141	2	60.002	1	-1139158971	8/11/2010	11:01:57	1	BlockProc	SessionList	2	2	1	11	NULL	NULL	NULL	NULL	11	2	11	Scenes	NULL	NULL	NULL	Scenes	2	4390	0	125477	10	121187	1	NULL	NULL	scene/s_216.bmp	NULL	NULL	NULL	NULL	NULL	NULL	Repeat	FFSFFFSSFSSFSSSFSFFS	NULL	NULL	NULL	TrialProc	Relevant	BlockList	1	2	0	121077	10	120587	2	612	121199
TRSEscan	1141	2	60.002	1	-1139158971	8/11/2010	11:01:57	1	BlockProc	SessionList	2	2	1	12	NULL	NULL	NULL	NULL	12	2	12	Scenes	NULL	NULL	NULL	Scenes	1	6390	0	132477	10	126187	0	NULL	NULL	scene/s_316.bmp	NULL	NULL	NULL	NULL	NULL	NULL	Novel	FFSFFFSSFSSFSSSFSFFS	NULL	NULL	NULL	TrialProc	Relevant	BlockList	1	1	0	126077	10	125587	1	700	126287
TRSEscan	1141	2	60.002	1	-1139158971	8/11/2010	11:01:57	1	BlockProc	SessionList	2	2	1	13	NULL	NULL	NULL	NULL	13	2	13	Faces	NULL	NULL	NULL	Scenes	1	4390	0	137477	10	133187	2	NULL	NULL	face/m_010.bmp	NULL	NULL	NULL	NULL	NULL	NULL	Novel	FFSFFFSSFSSFSSSFSFFS	NULL	NULL	NULL	TrialProc	Irrelevant	BlockList	1	1	0	133077	10	132587	1	500	133087
TRSEscan	1141	2	60.002	1	-1139158971	8/11/2010	11:01:57	1	BlockProc	SessionList	2	2	1	14	NULL	NULL	NULL	NULL	14	2	14	Scenes	NULL	NULL	NULL	Scenes	2	2390	0	140476	10	138186	1	NULL	NULL	scene/s_316.bmp	NULL	NULL	NULL	NULL	NULL	NULL	Repeat	FFSFFFSSFSSFSSSFSFFS	NULL	NULL	NULL	TrialProc	Relevant	BlockList	1	2	0	138076	9	137586	2	709	138295
TRSEscan	1141	2	60.002	1	-1139158971	8/11/2010	11:01:57	1	BlockProc	SessionList	2	2	1	15	NULL	NULL	NULL	NULL	15	2	15	Scenes	NULL	NULL	NULL	Scenes	1	6390	0	147476	10	141186	0	NULL	NULL	scene/s_049.bmp	NULL	NULL	NULL	NULL	NULL	NULL	Novel	FFSFFFSSFSSFSSSFSFFS	NULL	NULL	NULL	TrialProc	Relevant	BlockList	1	1	0	141076	10	140586	1	733	141319
TRSEscan	1141	2	60.002	1	-1139158971	8/11/2010	11:01:57	1	BlockProc	SessionList	2	2	1	16	NULL	NULL	NULL	NULL	16	2	16	Scenes	NULL	NULL	NULL	Scenes	1	4390	0	152476	10	148186	0	NULL	NULL	scene/s_166.bmp	NULL	NULL	NULL	NULL	NULL	NULL	Novel	FFSFFFSSFSSFSSSFSFFS	NULL	NULL	NULL	TrialProc	Relevant	BlockList	1	1	0	148076	10	147586	1	685	148271
TRSEscan	1141	2	60.002	1	-1139158971	8/11/2010	11:01:57	1	BlockProc	SessionList	2	2	1	17	NULL	NULL	NULL	NULL	17	2	17	Faces	NULL	NULL	NULL	Scenes	1	6390	0	159476	10	153186	3	NULL	NULL	face/m_049.bmp	NULL	NULL	NULL	NULL	NULL	NULL	Novel	FFSFFFSSFSSFSSSFSFFS	NULL	NULL	NULL	TrialProc	Irrelevant	BlockList	1	1	0	153076	10	152586	1	421	153007
TRSEscan	1141	2	60.002	1	-1139158971	8/11/2010	11:01:57	1	BlockProc	SessionList	2	2	1	18	NULL	NULL	NULL	NULL	18	2	18	Scenes	NULL	NULL	NULL	Scenes	2	2390	0	162476	10	160186	1	NULL	NULL	scene/s_166.bmp	NULL	NULL	NULL	NULL	NULL	NULL	Repeat	FFSFFFSSFSSFSSSFSFFS	NULL	NULL	NULL	TrialProc	Relevant	BlockList	1	2	0	160076	10	159586	2	469	160055
TRSEscan	1141	2	60.002	1	-1139158971	8/11/2010	11:01:57	1	BlockProc	SessionList	2	2	1	19	NULL	NULL	NULL	NULL	19	2	19	Faces	NULL	NULL	NULL	Scenes	1	2390	0	165476	10	163186	1	NULL	NULL	face/m_049.bmp	NULL	NULL	NULL	NULL	NULL	NULL	Repeat	FFSFFFSSFSSFSSSFSFFS	NULL	NULL	NULL	TrialProc	Irrelevant	BlockList	1	1	0	163076	10	162586	1	404	162990
TRSEscan	1141	2	60.002	1	-1139158971	8/11/2010	11:01:57	1	BlockProc	SessionList	2	2	1	20	NULL	NULL	NULL	NULL	20	2	20	Faces	NULL	NULL	NULL	Scenes	1	6390	0	172476	10	166186	0	NULL	NULL	face/f_003.bmp	NULL	NULL	NULL	NULL	NULL	NULL	Novel	FFSFFFSSFSSFSSSFSFFS	NULL	NULL	NULL	TrialProc	Irrelevant	BlockList	1	1	0	166076	10	165586	1	428	166014
TRSEscan	1141	2	60.002	1	-1139158971	8/11/2010	11:01:57	1	BlockProc	SessionList	2	2	1	21	NULL	NULL	NULL	NULL	21	2	21	Scenes	NULL	NULL	NULL	Scenes	1	4390	0	177476	10	173186	2	NULL	NULL	scene/s_168.bmp	NULL	NULL	NULL	NULL	NULL	NULL	Novel	FFSFFFSSFSSFSSSFSFFS	NULL	NULL	NULL	TrialProc	Relevant	BlockList	1	1	0	173076	10	172586	1	364	172950
TRSEscan	1141	2	60.002	1	-1139158971	8/11/2010	11:01:57	1	BlockProc	SessionList	2	2	1	22	NULL	NULL	NULL	NULL	22	2	22		NULL	NULL	NULL	Scenes			NULL	NULL	NULL	NULL		192475	190585		NULL	NULL	NULL	NULL	NULL	NULL			NULL	NULL	NULL	FeedbackProc		BlockList	NULL	NULL	NULL	NULL	NULL	NULL	NULL	NULL	NULL
TRSEscan	1141	2	60.002	1	-1139158971	8/11/2010	11:01:57	2	BlockProc	SessionList	2	2	2	1	-999999	196254	10	192585	1	3	23		1	2	1386	Categorize			NULL	NULL	NULL	NULL		NULL	NULL		207029	1	198669	0	208025	207035			0	209925	208035	InstrProc		BlockList	NULL	NULL	NULL	NULL	NULL	NULL	NULL	NULL	NULL
TRSEscan	1141	2	60.002	1	-1139158971	8/11/2010	11:01:57	2	BlockProc	SessionList	2	2	2	2	NULL	NULL	NULL	NULL	2	3	24	Faces	NULL	NULL	NULL	Categorize	1	2390	0	212925	10	210635	0	NULL	NULL	face/f_020.bmp	NULL	NULL	NULL	NULL	NULL	NULL	Novel	FFSFFFSSFSSFSSSFSFFS	NULL	NULL	NULL	TrialProc	Irrelevant	BlockList	1	1	0	210525	10	210035	1	466	210501
TRSEscan	1141	2	60.002	1	-1139158971	8/11/2010	11:01:57	2	BlockProc	SessionList	2	2	2	3	NULL	NULL	NULL	NULL	3	3	25	Faces	NULL	NULL	NULL	Categorize	1	4390	0	217925	10	213635	0	NULL	NULL	face/m_043.bmp	NULL	NULL	NULL	NULL	NULL	NULL	Novel	FFSFFFSSFSSFSSSFSFFS	NULL	NULL	NULL	TrialProc	Irrelevant	BlockList	1	1	0	213525	10	213035	1	490	213525
TRSEscan	1141	2	60.002	1	-1139158971	8/11/2010	11:01:57	2	BlockProc	SessionList	2	2	2	4	NULL	NULL	NULL	NULL	4	3	26	Scenes	NULL	NULL	NULL	Categorize	2	6390	0	224924	10	218634	2	NULL	NULL	scene/s_234.bmp	NULL	NULL	NULL	NULL	NULL	NULL	Novel	FFSFFFSSFSSFSSSFSFFS	NULL	NULL	NULL	TrialProc	Irrelevant	BlockList	1	2	0	218524	9	218034	2	379	218413
TRSEscan	1141	2	60.002	1	-1139158971	8/11/2010	11:01:57	2	BlockProc	SessionList	2	2	2	5	NULL	NULL	NULL	NULL	5	3	27	Faces	NULL	NULL	NULL	Categorize	1	4390	0	229924	10	225634	1	NULL	NULL	face/m_043.bmp	NULL	NULL	NULL	NULL	NULL	NULL	Repeat	FFSFFFSSFSSFSSSFSFFS	NULL	NULL	NULL	TrialProc	Irrelevant	BlockList	1	1	0	225524	10	225034	1	411	225445
TRSEscan	1141	2	60.002	1	-1139158971	8/11/2010	11:01:57	2	BlockProc	SessionList	2	2	2	6	NULL	NULL	NULL	NULL	6	3	28	Faces	NULL	NULL	NULL	Categorize	1	2390	0	232924	10	230634	0	NULL	NULL	face/m_043.bmp	NULL	NULL	NULL	NULL	NULL	NULL	Repeat	FFSFFFSSFSSFSSSFSFFS	NULL	NULL	NULL	TrialProc	Irrelevant	BlockList	1	1	0	230524	10	230034	1	347	230381
TRSEscan	1141	2	60.002	1	-1139158971	8/11/2010	11:01:57	2	BlockProc	SessionList	2	2	2	7	NULL	NULL	NULL	NULL	7	3	29	Faces	NULL	NULL	NULL	Categorize	1	6390	0	239924	10	233634	0	NULL	NULL	face/f_141.bmp	NULL	NULL	NULL	NULL	NULL	NULL	Novel	FFSFFFSSFSSFSSSFSFFS	NULL	NULL	NULL	TrialProc	Irrelevant	BlockList	1	1	0	233524	10	233034	1	419	233453
TRSEscan	1141	2	60.002	1	-1139158971	8/11/2010	11:01:57	2	BlockProc	SessionList	2	2	2	8	NULL	NULL	NULL	NULL	8	3	30	Scenes	NULL	NULL	NULL	Categorize	2	2390	0	242924	10	240634	3	NULL	NULL	scene/s_383.bmp	NULL	NULL	NULL	NULL	NULL	NULL	Novel	FFSFFFSSFSSFSSSFSFFS	NULL	NULL	NULL	TrialProc	Irrelevant	BlockList	1	2	0	240524	10	240034	2	467	240501
TRSEscan	1141	2	60.002	1	-1139158971	8/11/2010	11:01:57	2	BlockProc	SessionList	2	2	2	9	NULL	NULL	NULL	NULL	9	3	31	Scenes	NULL	NULL	NULL	Categorize	2	4390	0	247924	10	243634	0	NULL	NULL	scene/s_383.bmp	NULL	NULL	NULL	NULL	NULL	NULL	Repeat	FFSFFFSSFSSFSSSFSFFS	NULL	NULL	NULL	TrialProc	Irrelevant	BlockList	1	2	0	243524	10	243034	2	490	243524
TRSEscan	1141	2	60.002	1	-1139158971	8/11/2010	11:01:57	2	BlockProc	SessionList	2	2	2	10	NULL	NULL	NULL	NULL	10	3	32	Faces	NULL	NULL	NULL	Categorize	1	2390	0	250924	10	248634	2	NULL	NULL	face/f_141.bmp	NULL	NULL	NULL	NULL	NULL	NULL	Repeat	FFSFFFSSFSSFSSSFSFFS	NULL	NULL	NULL	TrialProc	Irrelevant	BlockList	1	1	0	248524	10	248034	1	370	248404
TRSEscan	1141	2	60.002	1	-1139158971	8/11/2010	11:01:57	2	BlockProc	SessionList	2	2	2	11	NULL	NULL	NULL	NULL	11	3	33	Scenes	NULL	NULL	NULL	Categorize	2	4390	0	255924	10	251634	1	NULL	NULL	scene/s_383.bmp	NULL	NULL	NULL	NULL	NULL	NULL	Repeat	FFSFFFSSFSSFSSSFSFFS	NULL	NULL	NULL	TrialProc	Irrelevant	BlockList	1	2	0	251524	10	251034	2	386	251420
TRSEscan	1141	2	60.002	1	-1139158971	8/11/2010	11:01:57	2	BlockProc	SessionList	2	2	2	12	NULL	NULL	NULL	NULL	12	3	34	Scenes	NULL	NULL	NULL	Categorize	2	6390	0	262923	10	256633	0	NULL	NULL	scene/s_043.bmp	NULL	NULL	NULL	NULL	NULL	NULL	Novel	FFSFFFSSFSSFSSSFSFFS	NULL	NULL	NULL	TrialProc	Irrelevant	BlockList	1	2	0	256523	9	256033	2	515	256548
TRSEscan	1141	2	60.002	1	-1139158971	8/11/2010	11:01:57	2	BlockProc	SessionList	2	2	2	13	NULL	NULL	NULL	NULL	13	3	35	Faces	NULL	NULL	NULL	Categorize	1	4390	0	267923	10	263633	2	NULL	NULL	face/m_088.bmp	NULL	NULL	NULL	NULL	NULL	NULL	Novel	FFSFFFSSFSSFSSSFSFFS	NULL	NULL	NULL	TrialProc	Irrelevant	BlockList	1	1	0	263523	10	263033	1	531	263564
TRSEscan	1141	2	60.002	1	-1139158971	8/11/2010	11:01:57	2	BlockProc	SessionList	2	2	2	14	NULL	NULL	NULL	NULL	14	3	36	Scenes	NULL	NULL	NULL	Categorize	2	2390	0	270923	10	268633	1	NULL	NULL	scene/s_043.bmp	NULL	NULL	NULL	NULL	NULL	NULL	Repeat	FFSFFFSSFSSFSSSFSFFS	NULL	NULL	NULL	TrialProc	Irrelevant	BlockList	1	2	0	268523	10	268033	2	635	268668
TRSEscan	1141	2	60.002	1	-1139158971	8/11/2010	11:01:57	2	BlockProc	SessionList	2	2	2	15	NULL	NULL	NULL	NULL	15	3	37	Scenes	NULL	NULL	NULL	Categorize	2	6390	0	277923	10	271633	0	NULL	NULL	scene/s_156.bmp	NULL	NULL	NULL	NULL	NULL	NULL	Novel	FFSFFFSSFSSFSSSFSFFS	NULL	NULL	NULL	TrialProc	Irrelevant	BlockList	1	2	0	271523	10	271033	2	451	271484
TRSEscan	1141	2	60.002	1	-1139158971	8/11/2010	11:01:57	2	BlockProc	SessionList	2	2	2	16	NULL	NULL	NULL	NULL	16	3	38	Scenes	NULL	NULL	NULL	Categorize	2	4390	0	282923	10	278633	0	NULL	NULL	scene/s_334.bmp	NULL	NULL	NULL	NULL	NULL	NULL	Novel	FFSFFFSSFSSFSSSFSFFS	NULL	NULL	NULL	TrialProc	Irrelevant	BlockList	1	2	0	278523	10	278033	2	419	278452
TRSEscan	1141	2	60.002	1	-1139158971	8/11/2010	11:01:57	2	BlockProc	SessionList	2	2	2	17	NULL	NULL	NULL	NULL	17	3	39	Faces	NULL	NULL	NULL	Categorize	1	6390	0	289923	10	283633	3	NULL	NULL	face/f_041.bmp	NULL	NULL	NULL	NULL	NULL	NULL	Novel	FFSFFFSSFSSFSSSFSFFS	NULL	NULL	NULL	TrialProc	Irrelevant	BlockList	0	1	0	283523	10	283033	2	450	283483
TRSEscan	1141	2	60.002	1	-1139158971	8/11/2010	11:01:57	2	BlockProc	SessionList	2	2	2	18	NULL	NULL	NULL	NULL	18	3	40	Scenes	NULL	NULL	NULL	Categorize	2	2390	0	292923	10	290633	1	NULL	NULL	scene/s_334.bmp	NULL	NULL	NULL	NULL	NULL	NULL	Repeat	FFSFFFSSFSSFSSSFSFFS	NULL	NULL	NULL	TrialProc	Irrelevant	BlockList	1	2	0	290523	10	290033	2	514	290547
TRSEscan	1141	2	60.002	1	-1139158971	8/11/2010	11:01:57	2	BlockProc	SessionList	2	2	2	19	NULL	NULL	NULL	NULL	19	3	41	Faces	NULL	NULL	NULL	Categorize	1	2390	0	295923	10	293633	1	NULL	NULL	face/f_041.bmp	NULL	NULL	NULL	NULL	NULL	NULL	Repeat	FFSFFFSSFSSFSSSFSFFS	NULL	NULL	NULL	TrialProc	Irrelevant	BlockList	1	1	0	293523	10	293033	1	514	293547
TRSEscan	1141	2	60.002	1	-1139158971	8/11/2010	11:01:57	2	BlockProc	SessionList	2	2	2	20	NULL	NULL	NULL	NULL	20	3	42	Faces	NULL	NULL	NULL	Categorize	1	6390	0	302922	10	296632	0	NULL	NULL	face/m_147.bmp	NULL	NULL	NULL	NULL	NULL	NULL	Novel	FFSFFFSSFSSFSSSFSFFS	NULL	NULL	NULL	TrialProc	Irrelevant	BlockList	1	1	0	296522	9	296032	1	491	296523
TRSEscan	1141	2	60.002	1	-1139158971	8/11/2010	11:01:57	2	BlockProc	SessionList	2	2	2	21	NULL	NULL	NULL	NULL	21	3	43	Scenes	NULL	NULL	NULL	Categorize	2	4390	0	307922	10	303632	2	NULL	NULL	scene/s_163.bmp	NULL	NULL	NULL	NULL	NULL	NULL	Novel	FFSFFFSSFSSFSSSFSFFS	NULL	NULL	NULL	TrialProc	Irrelevant	BlockList	1	2	0	303522	10	303032	2	539	303571
TRSEscan	1141	2	60.002	1	-1139158971	8/11/2010	11:01:57	2	BlockProc	SessionList	2	2	2	22	NULL	NULL	NULL	NULL	22	3	44		NULL	NULL	NULL	Categorize			NULL	NULL	NULL	NULL		322922	321032		NULL	NULL	NULL	NULL	NULL	NULL			NULL	NULL	NULL	FeedbackProc		BlockList	NULL	NULL	NULL	NULL	NULL	NULL	NULL	NULL	NULL
TRSEscan	1141	2	60.002	1	-1139158971	8/11/2010	11:01:57	3	BlockProc	SessionList	2	2	3	1	-999999	326954	10	323032	1	4	45		1	2	1765	Both			NULL	NULL	NULL	NULL		NULL	NULL		340074	1	329733	0	341071	340081			0	342971	341081	InstrProc		BlockList	NULL	NULL	NULL	NULL	NULL	NULL	NULL	NULL	NULL
TRSEscan	1141	2	60.002	1	-1139158971	8/11/2010	11:01:57	3	BlockProc	SessionList	2	2	3	2	NULL	NULL	NULL	NULL	2	4	46	Faces	NULL	NULL	NULL	Both	1	2390	0	345971	10	343681	0	NULL	NULL	face/m_073.bmp	NULL	NULL	NULL	NULL	NULL	NULL	Novel	FFSFFFSSFSSFSSSFSFFS	NULL	NULL	NULL	TrialProc	Relevant	BlockList	1	1	0	343571	10	343081	1	329	343410
TRSEscan	1141	2	60.002	1	-1139158971	8/11/2010	11:01:57	3	BlockProc	SessionList	2	2	3	3	NULL	NULL	NULL	NULL	3	4	47	Faces	NULL	NULL	NULL	Both	1	4390	0	350971	10	346681	0	NULL	NULL	face/m_124.bmp	NULL	NULL	NULL	NULL	NULL	NULL	Novel	FFSFFFSSFSSFSSSFSFFS	NULL	NULL	NULL	TrialProc	Relevant	BlockList	1	1	0	346571	10	346081	1	593	346674
TRSEscan	1141	2	60.002	1	-1139158971	8/11/2010	11:01:57	3	BlockProc	SessionList	2	2	3	4	NULL	NULL	NULL	NULL	4	4	48	Scenes	NULL	NULL	NULL	Both	1	6390	0	357971	10	351681	2	NULL	NULL	scene/s_122.bmp	NULL	NULL	NULL	NULL	NULL	NULL	Novel	FFSFFFSSFSSFSSSFSFFS	NULL	NULL	NULL	TrialProc	Relevant	BlockList	1	1	0	351571	10	351081	1	377	351458
TRSEscan	1141	2	60.002	1	-1139158971	8/11/2010	11:01:57	3	BlockProc	SessionList	2	2	3	5	NULL	NULL	NULL	NULL	5	4	49	Faces	NULL	NULL	NULL	Both	2	4390	0	362971	10	358681	1	NULL	NULL	face/m_124.bmp	NULL	NULL	NULL	NULL	NULL	NULL	Repeat	FFSFFFSSFSSFSSSFSFFS	NULL	NULL	NULL	TrialProc	Relevant	BlockList	1	2	0	358571	10	358081	2	497	358578
TRSEscan	1141	2	60.002	1	-1139158971	8/11/2010	11:01:57	3	BlockProc	SessionList	2	2	3	6	NULL	NULL	NULL	NULL	6	4	50	Faces	NULL	NULL	NULL	Both	2	2390	0	365971	10	363681	0	NULL	NULL	face/m_124.bmp	NULL	NULL	NULL	NULL	NULL	NULL	Repeat	FFSFFFSSFSSFSSSFSFFS	NULL	NULL	NULL	TrialProc	Relevant	BlockList	0	2	0	363571	10	363081	1	520	363601
TRSEscan	1141	2	60.002	1	-1139158971	8/11/2010	11:01:57	3	BlockProc	SessionList	2	2	3	7	NULL	NULL	NULL	NULL	7	4	51	Faces	NULL	NULL	NULL	Both	1	6390	0	372971	10	366681	0	NULL	NULL	face/m_122.bmp	NULL	NULL	NULL	NULL	NULL	NULL	Novel	FFSFFFSSFSSFSSSFSFFS	NULL	NULL	NULL	TrialProc	Relevant	BlockList	1	1	0	366571	10	366081	1	816	366897
TRSEscan	1141	2	60.002	1	-1139158971	8/11/2010	11:01:57	3	BlockProc	SessionList	2	2	3	8	NULL	NULL	NULL	NULL	8	4	52	Scenes	NULL	NULL	NULL	Both	1	2390	0	375971	10	373681	3	NULL	NULL	scene/s_361.bmp	NULL	NULL	NULL	NULL	NULL	NULL	Novel	FFSFFFSSFSSFSSSFSFFS	NULL	NULL	NULL	TrialProc	Relevant	BlockList	0	1	0	373571	10	373081	2	952	374033
TRSEscan	1141	2	60.002	1	-1139158971	8/11/2010	11:01:57	3	BlockProc	SessionList	2	2	3	9	NULL	NULL	NULL	NULL	9	4	53	Scenes	NULL	NULL	NULL	Both	2	4390	0	380970	10	376680	0	NULL	NULL	scene/s_361.bmp	NULL	NULL	NULL	NULL	NULL	NULL	Repeat	FFSFFFSSFSSFSSSFSFFS	NULL	NULL	NULL	TrialProc	Relevant	BlockList	1	2	0	376570	9	376080	2	713	376793
TRSEscan	1141	2	60.002	1	-1139158971	8/11/2010	11:01:57	3	BlockProc	SessionList	2	2	3	10	NULL	NULL	NULL	NULL	10	4	54	Faces	NULL	NULL	NULL	Both	2	2390	0	383970	10	381680	2	NULL	NULL	face/m_122.bmp	NULL	NULL	NULL	NULL	NULL	NULL	Repeat	FFSFFFSSFSSFSSSFSFFS	NULL	NULL	NULL	TrialProc	Relevant	BlockList	1	2	0	381570	10	381080	2	841	381921
TRSEscan	1141	2	60.002	1	-1139158971	8/11/2010	11:01:57	3	BlockProc	SessionList	2	2	3	11	NULL	NULL	NULL	NULL	11	4	55	Scenes	NULL	NULL	NULL	Both	2	4390	0	388970	10	384680	1	NULL	NULL	scene/s_361.bmp	NULL	NULL	NULL	NULL	NULL	NULL	Repeat	FFSFFFSSFSSFSSSFSFFS	NULL	NULL	NULL	TrialProc	Relevant	BlockList	1	2	0	384570	10	384080	2	649	384729
TRSEscan	1141	2	60.002	1	-1139158971	8/11/2010	11:01:57	3	BlockProc	SessionList	2	2	3	12	NULL	NULL	NULL	NULL	12	4	56	Scenes	NULL	NULL	NULL	Both	1	6390	0	395970	10	389680	0	NULL	NULL	scene/s_159.bmp	NULL	NULL	NULL	NULL	NULL	NULL	Novel	FFSFFFSSFSSFSSSFSFFS	NULL	NULL	NULL	TrialProc	Relevant	BlockList	1	1	0	389570	10	389080	1	641	389721
TRSEscan	1141	2	60.002	1	-1139158971	8/11/2010	11:01:57	3	BlockProc	SessionList	2	2	3	13	NULL	NULL	NULL	NULL	13	4	57	Faces	NULL	NULL	NULL	Both	1	4390	0	400970	10	396680	2	NULL	NULL	face/m_029.bmp	NULL	NULL	NULL	NULL	NULL	NULL	Novel	FFSFFFSSFSSFSSSFSFFS	NULL	NULL	NULL	TrialProc	Relevant	BlockList	1	1	0	396570	10	396080	1	761	396841
TRSEscan	1141	2	60.002	1	-1139158971	8/11/2010	11:01:57	3	BlockProc	SessionList	2	2	3	14	NULL	NULL	NULL	NULL	14	4	58	Scenes	NULL	NULL	NULL	Both	2	2390	0	403970	10	401680	1	NULL	NULL	scene/s_159.bmp	NULL	NULL	NULL	NULL	NULL	NULL	Repeat	FFSFFFSSFSSFSSSFSFFS	NULL	NULL	NULL	TrialProc	Relevant	BlockList	1	2	0	401570	10	401080	2	776	401856
TRSEscan	1141	2	60.002	1	-1139158971	8/11/2010	11:01:57	3	BlockProc	SessionList	2	2	3	15	NULL	NULL	NULL	NULL	15	4	59	Scenes	NULL	NULL	NULL	Both	1	6390	0	410970	10	404680	0	NULL	NULL	scene/s_242.bmp	NULL	NULL	NULL	NULL	NULL	NULL	Novel	FFSFFFSSFSSFSSSFSFFS	NULL	NULL	NULL	TrialProc	Relevant	BlockList	1	1	0	404570	10	404080	1	568	404648
TRSEscan	1141	2	60.002	1	-1139158971	8/11/2010	11:01:57	3	BlockProc	SessionList	2	2	3	16	NULL	NULL	NULL	NULL	16	4	60	Scenes	NULL	NULL	NULL	Both	1	4390	0	415970	10	411680	0	NULL	NULL	scene/s_432.bmp	NULL	NULL	NULL	NULL	NULL	NULL	Novel	FFSFFFSSFSSFSSSFSFFS	NULL	NULL	NULL	TrialProc	Relevant	BlockList	1	1	0	411570	10	411080	1	512	411592
TRSEscan	1141	2	60.002	1	-1139158971	8/11/2010	11:01:57	3	BlockProc	SessionList	2	2	3	17	NULL	NULL	NULL	NULL	17	4	61	Faces	NULL	NULL	NULL	Both	1	6390	0	422969	10	416679	3	NULL	NULL	face/f_005.bmp	NULL	NULL	NULL	NULL	NULL	NULL	Novel	FFSFFFSSFSSFSSSFSFFS	NULL	NULL	NULL	TrialProc	Relevant	BlockList	1	1	0	416569	9	416079	1	833	416912
TRSEscan	1141	2	60.002	1	-1139158971	8/11/2010	11:01:57	3	BlockProc	SessionList	2	2	3	18	NULL	NULL	NULL	NULL	18	4	62	Scenes	NULL	NULL	NULL	Both	2	2390	0	425969	10	423679	1	NULL	NULL	scene/s_432.bmp	NULL	NULL	NULL	NULL	NULL	NULL	Repeat	FFSFFFSSFSSFSSSFSFFS	NULL	NULL	NULL	TrialProc	Relevant	BlockList	1	2	0	423569	10	423079	2	665	423744
TRSEscan	1141	2	60.002	1	-1139158971	8/11/2010	11:01:57	3	BlockProc	SessionList	2	2	3	19	NULL	NULL	NULL	NULL	19	4	63	Faces	NULL	NULL	NULL	Both	2	2390	0	428969	10	426679	1	NULL	NULL	face/f_005.bmp	NULL	NULL	NULL	NULL	NULL	NULL	Repeat	FFSFFFSSFSSFSSSFSFFS	NULL	NULL	NULL	TrialProc	Relevant	BlockList	1	2	0	426569	10	426079	2	561	426640
TRSEscan	1141	2	60.002	1	-1139158971	8/11/2010	11:01:57	3	BlockProc	SessionList	2	2	3	20	NULL	NULL	NULL	NULL	20	4	64	Faces	NULL	NULL	NULL	Both	1	6390	0	435969	10	429679	0	NULL	NULL	face/m_085.bmp	NULL	NULL	NULL	NULL	NULL	NULL	Novel	FFSFFFSSFSSFSSSFSFFS	NULL	NULL	NULL	TrialProc	Relevant	BlockList	1	1	0	429569	10	429079	1	641	429720
TRSEscan	1141	2	60.002	1	-1139158971	8/11/2010	11:01:57	3	BlockProc	SessionList	2	2	3	21	NULL	NULL	NULL	NULL	21	4	65	Scenes	NULL	NULL	NULL	Both	1	4390	0	440969	10	436679	2	NULL	NULL	scene/s_400.bmp	NULL	NULL	NULL	NULL	NULL	NULL	Novel	FFSFFFSSFSSFSSSFSFFS	NULL	NULL	NULL	TrialProc	Relevant	BlockList	1	1	0	436569	10	436079	1	473	436552
TRSEscan	1141	2	60.002	1	-1139158971	8/11/2010	11:01:57	3	BlockProc	SessionList	2	2	3	22	NULL	NULL	NULL	NULL	22	4	66		NULL	NULL	NULL	Both			NULL	NULL	NULL	NULL		455969	454079		NULL	NULL	NULL	NULL	NULL	NULL			NULL	NULL	NULL	FeedbackProc		BlockList	NULL	NULL	NULL	NULL	NULL	NULL	NULL	NULL	NULL
TRSEscan	1141	2	60.002	1	-1139158971	8/11/2010	11:01:57	4	BlockProc	SessionList	2	2	4	1	-999999	458871	9	456078	1	5	67		1	2	977	Faces			NULL	NULL	NULL	NULL		NULL	NULL		470767	1	460863	0	471768	470778			0	473668	471778	InstrProc		BlockList	NULL	NULL	NULL	NULL	NULL	NULL	NULL	NULL	NULL
TRSEscan	1141	2	60.002	1	-1139158971	8/11/2010	11:01:57	4	BlockProc	SessionList	2	2	4	2	NULL	NULL	NULL	NULL	2	5	68	Faces	NULL	NULL	NULL	Faces	1	2390	0	476668	10	474378	0	NULL	NULL	face/f_123.bmp	NULL	NULL	NULL	NULL	NULL	NULL	Novel	FFSFFFSSFSSFSSSFSFFS	NULL	NULL	NULL	TrialProc	Relevant	BlockList	1	1	0	474268	10	473778	1	741	474519
TRSEscan	1141	2	60.002	1	-1139158971	8/11/2010	11:01:57	4	BlockProc	SessionList	2	2	4	3	NULL	NULL	NULL	NULL	3	5	69	Faces	NULL	NULL	NULL	Faces	1	4390	0	481668	10	477378	0	NULL	NULL	face/m_027.bmp	NULL	NULL	NULL	NULL	NULL	NULL	Novel	FFSFFFSSFSSFSSSFSFFS	NULL	NULL	NULL	TrialProc	Relevant	BlockList	1	1	0	477268	10	476778	1	493	477271
TRSEscan	1141	2	60.002	1	-1139158971	8/11/2010	11:01:57	4	BlockProc	SessionList	2	2	4	4	NULL	NULL	NULL	NULL	4	5	70	Scenes	NULL	NULL	NULL	Faces	1	6390	0	488668	10	482378	2	NULL	NULL	scene/s_425.bmp	NULL	NULL	NULL	NULL	NULL	NULL	Novel	FFSFFFSSFSSFSSSFSFFS	NULL	NULL	NULL	TrialProc	Irrelevant	BlockList	1	1	0	482268	10	481778	1	476	482254
TRSEscan	1141	2	60.002	1	-1139158971	8/11/2010	11:01:57	4	BlockProc	SessionList	2	2	4	5	NULL	NULL	NULL	NULL	5	5	71	Faces	NULL	NULL	NULL	Faces	2	4390	0	493668	10	489378	1	NULL	NULL	face/m_027.bmp	NULL	NULL	NULL	NULL	NULL	NULL	Repeat	FFSFFFSSFSSFSSSFSFFS	NULL	NULL	NULL	TrialProc	Relevant	BlockList	1	2	0	489268	10	488778	2	548	489326
TRSEscan	1141	2	60.002	1	-1139158971	8/11/2010	11:01:57	4	BlockProc	SessionList	2	2	4	6	NULL	NULL	NULL	NULL	6	5	72	Faces	NULL	NULL	NULL	Faces	2	2390	0	496668	10	494378	0	NULL	NULL	face/m_027.bmp	NULL	NULL	NULL	NULL	NULL	NULL	Repeat	FFSFFFSSFSSFSSSFSFFS	NULL	NULL	NULL	TrialProc	Relevant	BlockList	0	2	0	494268	10	493778	1	564	494342
TRSEscan	1141	2	60.002	1	-1139158971	8/11/2010	11:01:57	4	BlockProc	SessionList	2	2	4	7	NULL	NULL	NULL	NULL	7	5	73	Faces	NULL	NULL	NULL	Faces	1	6390	0	503667	10	497377	0	NULL	NULL	face/f_115.bmp	NULL	NULL	NULL	NULL	NULL	NULL	Novel	FFSFFFSSFSSFSSSFSFFS	NULL	NULL	NULL	TrialProc	Relevant	BlockList	1	1	0	497267	9	496777	1	637	497414
TRSEscan	1141	2	60.002	1	-1139158971	8/11/2010	11:01:57	4	BlockProc	SessionList	2	2	4	8	NULL	NULL	NULL	NULL	8	5	74	Scenes	NULL	NULL	NULL	Faces	1	2390	0	506667	10	504377	3	NULL	NULL	scene/s_272.bmp	NULL	NULL	NULL	NULL	NULL	NULL	Novel	FFSFFFSSFSSFSSSFSFFS	NULL	NULL	NULL	TrialProc	Irrelevant	BlockList	1	1	0	504267	10	503777	1	989	504766
TRSEscan	1141	2	60.002	1	-1139158971	8/11/2010	11:01:57	4	BlockProc	SessionList	2	2	4	9	NULL	NULL	NULL	NULL	9	5	75	Scenes	NULL	NULL	NULL	Faces	1	4390	0	511667	10	507377	0	NULL	NULL	scene/s_272.bmp	NULL	NULL	NULL	NULL	NULL	NULL	Repeat	FFSFFFSSFSSFSSSFSFFS	NULL	NULL	NULL	TrialProc	Irrelevant	BlockList	1	1	0	507267	10	506777	1	493	507270
TRSEscan	1141	2	60.002	1	-1139158971	8/11/2010	11:01:57	4	BlockProc	SessionList	2	2	4	10	NULL	NULL	NULL	NULL	10	5	76	Faces	NULL	NULL	NULL	Faces	2	2390	0	514667	10	512377	2	NULL	NULL	face/f_115.bmp	NULL	NULL	NULL	NULL	NULL	NULL	Repeat	FFSFFFSSFSSFSSSFSFFS	NULL	NULL	NULL	TrialProc	Relevant	BlockList	1	2	0	512267	10	511777	2	493	512270
TRSEscan	1141	2	60.002	1	-1139158971	8/11/2010	11:01:57	4	BlockProc	SessionList	2	2	4	11	NULL	NULL	NULL	NULL	11	5	77	Scenes	NULL	NULL	NULL	Faces	1	4390	0	519667	10	515377	1	NULL	NULL	scene/s_272.bmp	NULL	NULL	NULL	NULL	NULL	NULL	Repeat	FFSFFFSSFSSFSSSFSFFS	NULL	NULL	NULL	TrialProc	Irrelevant	BlockList	1	1	0	515267	10	514777	1	445	515222
TRSEscan	1141	2	60.002	1	-1139158971	8/11/2010	11:01:57	4	BlockProc	SessionList	2	2	4	12	NULL	NULL	NULL	NULL	12	5	78	Scenes	NULL	NULL	NULL	Faces	1	6390	0	526667	10	520377	0	NULL	NULL	scene/s_304.bmp	NULL	NULL	NULL	NULL	NULL	NULL	Novel	FFSFFFSSFSSFSSSFSFFS	NULL	NULL	NULL	TrialProc	Irrelevant	BlockList	1	1	0	520267	10	519777	1	460	520237
TRSEscan	1141	2	60.002	1	-1139158971	8/11/2010	11:01:57	4	BlockProc	SessionList	2	2	4	13	NULL	NULL	NULL	NULL	13	5	79	Faces	NULL	NULL	NULL	Faces	1	4390	0	531667	10	527377	2	NULL	NULL	face/m_089.bmp	NULL	NULL	NULL	NULL	NULL	NULL	Novel	FFSFFFSSFSSFSSSFSFFS	NULL	NULL	NULL	TrialProc	Relevant	BlockList	1	1	0	527267	10	526777	1	580	527357
TRSEscan	1141	2	60.002	1	-1139158971	8/11/2010	11:01:57	4	BlockProc	SessionList	2	2	4	14	NULL	NULL	NULL	NULL	14	5	80	Scenes	NULL	NULL	NULL	Faces	1	2390	0	534667	10	532377	1	NULL	NULL	scene/s_304.bmp	NULL	NULL	NULL	NULL	NULL	NULL	Repeat	FFSFFFSSFSSFSSSFSFFS	NULL	NULL	NULL	TrialProc	Irrelevant	BlockList	1	1	0	532267	10	531777	1	500	532277
TRSEscan	1141	2	60.002	1	-1139158971	8/11/2010	11:01:57	4	BlockProc	SessionList	2	2	4	15	NULL	NULL	NULL	NULL	15	5	81	Scenes	NULL	NULL	NULL	Faces	1	6390	0	541666	9	535376	0	NULL	NULL	scene/s_170.bmp	NULL	NULL	NULL	NULL	NULL	NULL	Novel	FFSFFFSSFSSFSSSFSFFS	NULL	NULL	NULL	TrialProc	Irrelevant	BlockList	1	1	0	535267	10	534777	1	644	535421
TRSEscan	1141	2	60.002	1	-1139158971	8/11/2010	11:01:57	4	BlockProc	SessionList	2	2	4	16	NULL	NULL	NULL	NULL	16	5	82	Scenes	NULL	NULL	NULL	Faces	1	4390	0	546666	10	542376	0	NULL	NULL	scene/s_192.bmp	NULL	NULL	NULL	NULL	NULL	NULL	Novel	FFSFFFSSFSSFSSSFSFFS	NULL	NULL	NULL	TrialProc	Irrelevant	BlockList	1	1	0	542266	10	541776	1	397	542173
TRSEscan	1141	2	60.002	1	-1139158971	8/11/2010	11:01:57	4	BlockProc	SessionList	2	2	4	17	NULL	NULL	NULL	NULL	17	5	83	Faces	NULL	NULL	NULL	Faces	1	6390	0	553666	10	547376	3	NULL	NULL	face/f_045.bmp	NULL	NULL	NULL	NULL	NULL	NULL	Novel	FFSFFFSSFSSFSSSFSFFS	NULL	NULL	NULL	TrialProc	Relevant	BlockList	1	1	0	547266	10	546776	1	485	547261
TRSEscan	1141	2	60.002	1	-1139158971	8/11/2010	11:01:57	4	BlockProc	SessionList	2	2	4	18	NULL	NULL	NULL	NULL	18	5	84	Scenes	NULL	NULL	NULL	Faces	1	2390	0	556666	10	554376	1	NULL	NULL	scene/s_192.bmp	NULL	NULL	NULL	NULL	NULL	NULL	Repeat	FFSFFFSSFSSFSSSFSFFS	NULL	NULL	NULL	TrialProc	Irrelevant	BlockList	1	1	0	554266	10	553776	1	429	554205
TRSEscan	1141	2	60.002	1	-1139158971	8/11/2010	11:01:57	4	BlockProc	SessionList	2	2	4	19	NULL	NULL	NULL	NULL	19	5	85	Faces	NULL	NULL	NULL	Faces	2	2390	0	559666	10	557376	1	NULL	NULL	face/f_045.bmp	NULL	NULL	NULL	NULL	NULL	NULL	Repeat	FFSFFFSSFSSFSSSFSFFS	NULL	NULL	NULL	TrialProc	Relevant	BlockList	1	2	0	557266	10	556776	2	565	557341
TRSEscan	1141	2	60.002	1	-1139158971	8/11/2010	11:01:57	4	BlockProc	SessionList	2	2	4	20	NULL	NULL	NULL	NULL	20	5	86	Faces	NULL	NULL	NULL	Faces	1	6390	0	566666	10	560376	0	NULL	NULL	face/f_146.bmp	NULL	NULL	NULL	NULL	NULL	NULL	Novel	FFSFFFSSFSSFSSSFSFFS	NULL	NULL	NULL	TrialProc	Relevant	BlockList	1	1	0	560266	10	559776	1	429	560205
TRSEscan	1141	2	60.002	1	-1139158971	8/11/2010	11:01:57	4	BlockProc	SessionList	2	2	4	21	NULL	NULL	NULL	NULL	21	5	87	Scenes	NULL	NULL	NULL	Faces	1	4390	0	571666	10	567376	2	NULL	NULL	scene/s_352.bmp	NULL	NULL	NULL	NULL	NULL	NULL	Novel	FFSFFFSSFSSFSSSFSFFS	NULL	NULL	NULL	TrialProc	Irrelevant	BlockList	1	1	0	567266	10	566776	1	516	567292
TRSEscan	1141	2	60.002	1	-1139158971	8/11/2010	11:01:57	4	BlockProc	SessionList	2	2	4	22	NULL	NULL	NULL	NULL	22	5	88		NULL	NULL	NULL	Faces			NULL	NULL	NULL	NULL		586665	584775		NULL	NULL	NULL	NULL	NULL	NULL			NULL	NULL	NULL	FeedbackProc		BlockList	NULL	NULL	NULL	NULL	NULL	NULL	NULL	NULL	NULL
TRSEscan	1141	3	60.002	1	1756073357	8/11/2010	11:12:31	1	BlockProc	SessionList	2	2	1	1	-999999	59774	2	54903	1	2	1		1	2	1565	Categorize			NULL	NULL	NULL	NULL		NULL	NULL		68158	1	62353	0	69158	68168			0	71058	69168	InstrProc		BlockList	NULL	NULL	NULL	NULL	NULL	NULL	NULL	NULL	NULL
TRSEscan	1141	3	60.002	1	1756073357	8/11/2010	11:12:31	1	BlockProc	SessionList	2	2	1	2	NULL	NULL	NULL	NULL	2	2	2	Faces	NULL	NULL	NULL	Categorize	1	4390	0	76058	10	71768	0	NULL	NULL	face/f_066.bmp	NULL	NULL	NULL	NULL	NULL	NULL	Novel	FFSFFFSFFSSFSFSSSFSS	NULL	NULL	NULL	TrialProc	Irrelevant	BlockList	1	1	0	71658	10	71168	1	422	71590
TRSEscan	1141	3	60.002	1	1756073357	8/11/2010	11:12:31	1	BlockProc	SessionList	2	2	1	3	NULL	NULL	NULL	NULL	3	2	3	Faces	NULL	NULL	NULL	Categorize	1	2390	0	79058	10	76768	0	NULL	NULL	face/f_099.bmp	NULL	NULL	NULL	NULL	NULL	NULL	Novel	FFSFFFSFFSSFSFSSSFSS	NULL	NULL	NULL	TrialProc	Irrelevant	BlockList	1	1	0	76658	10	76168	1	646	76814
TRSEscan	1141	3	60.002	1	1756073357	8/11/2010	11:12:31	1	BlockProc	SessionList	2	2	1	4	NULL	NULL	NULL	NULL	4	2	4	Scenes	NULL	NULL	NULL	Categorize	2	2390	0	82058	10	79768	2	NULL	NULL	scene/s_315.bmp	NULL	NULL	NULL	NULL	NULL	NULL	Novel	FFSFFFSFFSSFSFSSSFSS	NULL	NULL	NULL	TrialProc	Irrelevant	BlockList	1	2	0	79658	10	79168	2	549	79717
TRSEscan	1141	3	60.002	1	1756073357	8/11/2010	11:12:31	1	BlockProc	SessionList	2	2	1	5	NULL	NULL	NULL	NULL	5	2	5	Faces	NULL	NULL	NULL	Categorize	1	6390	0	89058	10	82768	1	NULL	NULL	face/f_147.bmp	NULL	NULL	NULL	NULL	NULL	NULL	Novel	FFSFFFSFFSSFSFSSSFSS	NULL	NULL	NULL	TrialProc	Irrelevant	BlockList	1	1	0	82658	10	82168	1	421	82589
TRSEscan	1141	3	60.002	1	1756073357	8/11/2010	11:12:31	1	BlockProc	SessionList	2	2	1	6	NULL	NULL	NULL	NULL	6	2	6	Faces	NULL	NULL	NULL	Categorize	1	4390	0	94058	10	89768	0	NULL	NULL	face/f_147.bmp	NULL	NULL	NULL	NULL	NULL	NULL	Repeat	FFSFFFSFFSSFSFSSSFSS	NULL	NULL	NULL	TrialProc	Irrelevant	BlockList	1	1	0	89658	10	89168	1	493	89661
TRSEscan	1141	3	60.002	1	1756073357	8/11/2010	11:12:31	1	BlockProc	SessionList	2	2	1	7	NULL	NULL	NULL	NULL	7	2	7	Faces	NULL	NULL	NULL	Categorize	1	6390	0	101057	10	94767	0	NULL	NULL	face/m_071.bmp	NULL	NULL	NULL	NULL	NULL	NULL	Novel	FFSFFFSFFSSFSFSSSFSS	NULL	NULL	NULL	TrialProc	Irrelevant	BlockList	1	1	0	94657	9	94167	1	454	94621
TRSEscan	1141	3	60.002	1	1756073357	8/11/2010	11:12:31	1	BlockProc	SessionList	2	2	1	8	NULL	NULL	NULL	NULL	8	2	8	Scenes	NULL	NULL	NULL	Categorize	2	2390	0	104057	10	101767	3	NULL	NULL	scene/s_434.bmp	NULL	NULL	NULL	NULL	NULL	NULL	Novel	FFSFFFSFFSSFSFSSSFSS	NULL	NULL	NULL	TrialProc	Irrelevant	BlockList	1	2	0	101657	10	101167	2	662	101829
TRSEscan	1141	3	60.002	1	1756073357	8/11/2010	11:12:31	1	BlockProc	SessionList	2	2	1	9	NULL	NULL	NULL	NULL	9	2	9	Faces	NULL	NULL	NULL	Categorize	1	4390	0	109057	10	104767	1	NULL	NULL	face/f_006.bmp	NULL	NULL	NULL	NULL	NULL	NULL	Novel	FFSFFFSFFSSFSFSSSFSS	NULL	NULL	NULL	TrialProc	Irrelevant	BlockList	1	1	0	104657	10	104167	1	534	104701
TRSEscan	1141	3	60.002	1	1756073357	8/11/2010	11:12:31	1	BlockProc	SessionList	2	2	1	10	NULL	NULL	NULL	NULL	10	2	10	Faces	NULL	NULL	NULL	Categorize	1	6390	0	116057	10	109767	0	NULL	NULL	face/f_006.bmp	NULL	NULL	NULL	NULL	NULL	NULL	Repeat	FFSFFFSFFSSFSFSSSFSS	NULL	NULL	NULL	TrialProc	Irrelevant	BlockList	1	1	0	109657	10	109167	1	526	109693
TRSEscan	1141	3	60.002	1	1756073357	8/11/2010	11:12:31	1	BlockProc	SessionList	2	2	1	11	NULL	NULL	NULL	NULL	11	2	11	Scenes	NULL	NULL	NULL	Categorize	2	4390	0	121057	10	116767	2	NULL	NULL	scene/s_025.bmp	NULL	NULL	NULL	NULL	NULL	NULL	Novel	FFSFFFSFFSSFSFSSSFSS	NULL	NULL	NULL	TrialProc	Irrelevant	BlockList	1	2	0	116657	10	116167	2	438	116605
TRSEscan	1141	3	60.002	1	1756073357	8/11/2010	11:12:31	1	BlockProc	SessionList	2	2	1	12	NULL	NULL	NULL	NULL	12	2	12	Scenes	NULL	NULL	NULL	Categorize	2	2390	0	124057	10	121767	0	NULL	NULL	scene/s_025.bmp	NULL	NULL	NULL	NULL	NULL	NULL	Repeat	FFSFFFSFFSSFSFSSSFSS	NULL	NULL	NULL	TrialProc	Irrelevant	BlockList	1	2	0	121657	10	121167	2	557	121724
TRSEscan	1141	3	60.002	1	1756073357	8/11/2010	11:12:31	1	BlockProc	SessionList	2	2	1	13	NULL	NULL	NULL	NULL	13	2	13	Faces	NULL	NULL	NULL	Categorize	1	4390	0	129057	10	124767	2	NULL	NULL	face/f_006.bmp	NULL	NULL	NULL	NULL	NULL	NULL	Repeat	FFSFFFSFFSSFSFSSSFSS	NULL	NULL	NULL	TrialProc	Irrelevant	BlockList	1	1	0	124657	10	124167	1	525	124692
TRSEscan	1141	3	60.002	1	1756073357	8/11/2010	11:12:31	1	BlockProc	SessionList	2	2	1	14	NULL	NULL	NULL	NULL	14	2	14	Scenes	NULL	NULL	NULL	Categorize	2	2390	0	132057	10	129767	1	NULL	NULL	scene/s_317.bmp	NULL	NULL	NULL	NULL	NULL	NULL	Novel	FFSFFFSFFSSFSFSSSFSS	NULL	NULL	NULL	TrialProc	Irrelevant	BlockList	1	2	0	129657	10	129167	2	533	129700
TRSEscan	1141	3	60.002	1	1756073357	8/11/2010	11:12:31	1	BlockProc	SessionList	2	2	1	15	NULL	NULL	NULL	NULL	15	2	15	Faces	NULL	NULL	NULL	Categorize	1	6390	0	139056	10	132766	1	NULL	NULL	face/m_069.bmp	NULL	NULL	NULL	NULL	NULL	NULL	Novel	FFSFFFSFFSSFSFSSSFSS	NULL	NULL	NULL	TrialProc	Irrelevant	BlockList	1	1	0	132656	9	132166	1	574	132740
TRSEscan	1141	3	60.002	1	1756073357	8/11/2010	11:12:31	1	BlockProc	SessionList	2	2	1	16	NULL	NULL	NULL	NULL	16	2	16	Scenes	NULL	NULL	NULL	Categorize	2	4390	0	144056	10	139766	1	NULL	NULL	scene/s_306.bmp	NULL	NULL	NULL	NULL	NULL	NULL	Novel	FFSFFFSFFSSFSFSSSFSS	NULL	NULL	NULL	TrialProc	Irrelevant	BlockList	1	2	0	139656	10	139166	2	430	139596
TRSEscan	1141	3	60.002	1	1756073357	8/11/2010	11:12:31	1	BlockProc	SessionList	2	2	1	17	NULL	NULL	NULL	NULL	17	2	17	Scenes	NULL	NULL	NULL	Categorize	2	6390	0	151056	10	144766	0	NULL	NULL	scene/s_306.bmp	NULL	NULL	NULL	NULL	NULL	NULL	Repeat	FFSFFFSFFSSFSFSSSFSS	NULL	NULL	NULL	TrialProc	Irrelevant	BlockList	1	2	0	144656	10	144166	2	486	144652
TRSEscan	1141	3	60.002	1	1756073357	8/11/2010	11:12:31	1	BlockProc	SessionList	2	2	1	18	NULL	NULL	NULL	NULL	18	2	18	Scenes	NULL	NULL	NULL	Categorize	2	2390	0	154056	10	151766	0	NULL	NULL	scene/s_306.bmp	NULL	NULL	NULL	NULL	NULL	NULL	Repeat	FFSFFFSFFSSFSFSSSFSS	NULL	NULL	NULL	TrialProc	Irrelevant	BlockList	1	2	0	151656	10	151166	2	494	151660
TRSEscan	1141	3	60.002	1	1756073357	8/11/2010	11:12:31	1	BlockProc	SessionList	2	2	1	19	NULL	NULL	NULL	NULL	19	2	19	Faces	NULL	NULL	NULL	Categorize	1	2390	0	157056	10	154766	3	NULL	NULL	face/m_069.bmp	NULL	NULL	NULL	NULL	NULL	NULL	Repeat	FFSFFFSFFSSFSFSSSFSS	NULL	NULL	NULL	TrialProc	Irrelevant	BlockList	0	1	0	154656	10	154166	2	462	154628
TRSEscan	1141	3	60.002	1	1756073357	8/11/2010	11:12:31	1	BlockProc	SessionList	2	2	1	20	NULL	NULL	NULL	NULL	20	2	20	Scenes	NULL	NULL	NULL	Categorize	2	4390	0	162056	10	157766	1	NULL	NULL	scene/s_351.bmp	NULL	NULL	NULL	NULL	NULL	NULL	Novel	FFSFFFSFFSSFSFSSSFSS	NULL	NULL	NULL	TrialProc	Irrelevant	BlockList	1	2	0	157656	10	157166	2	494	157660
TRSEscan	1141	3	60.002	1	1756073357	8/11/2010	11:12:31	1	BlockProc	SessionList	2	2	1	21	NULL	NULL	NULL	NULL	21	2	21	Scenes	NULL	NULL	NULL	Categorize	2	6390	0	169056	10	162766	0	NULL	NULL	scene/s_351.bmp	NULL	NULL	NULL	NULL	NULL	NULL	Repeat	FFSFFFSFFSSFSFSSSFSS	NULL	NULL	NULL	TrialProc	Irrelevant	BlockList	1	2	0	162656	10	162166	2	533	162699
TRSEscan	1141	3	60.002	1	1756073357	8/11/2010	11:12:31	1	BlockProc	SessionList	2	2	1	22	NULL	NULL	NULL	NULL	22	2	22		NULL	NULL	NULL	Categorize			NULL	NULL	NULL	NULL		184055	182165		NULL	NULL	NULL	NULL	NULL	NULL			NULL	NULL	NULL	FeedbackProc		BlockList	NULL	NULL	NULL	NULL	NULL	NULL	NULL	NULL	NULL
TRSEscan	1141	3	60.002	1	1756073357	8/11/2010	11:12:31	2	BlockProc	SessionList	2	2	2	1	-999999	188339	10	184165	1	3	23		1	2	1199	Both			NULL	NULL	NULL	NULL		NULL	NULL		202402	1	190549	0	203405	202415			0	205305	203415	InstrProc		BlockList	NULL	NULL	NULL	NULL	NULL	NULL	NULL	NULL	NULL
TRSEscan	1141	3	60.002	1	1756073357	8/11/2010	11:12:31	2	BlockProc	SessionList	2	2	2	2	NULL	NULL	NULL	NULL	2	3	24	Faces	NULL	NULL	NULL	Both	1	4390	0	210305	10	206015	0	NULL	NULL	face/m_068.bmp	NULL	NULL	NULL	NULL	NULL	NULL	Novel	FFSFFFSFFSSFSFSSSFSS	NULL	NULL	NULL	TrialProc	Relevant	BlockList	1	1	0	205905	10	205415	1	699	206114
TRSEscan	1141	3	60.002	1	1756073357	8/11/2010	11:12:31	2	BlockProc	SessionList	2	2	2	3	NULL	NULL	NULL	NULL	3	3	25	Faces	NULL	NULL	NULL	Both	1	2390	0	213305	10	211015	0	NULL	NULL	face/m_070.bmp	NULL	NULL	NULL	NULL	NULL	NULL	Novel	FFSFFFSFFSSFSFSSSFSS	NULL	NULL	NULL	TrialProc	Relevant	BlockList	1	1	0	210905	10	210415	1	459	210874
TRSEscan	1141	3	60.002	1	1756073357	8/11/2010	11:12:31	2	BlockProc	SessionList	2	2	2	4	NULL	NULL	NULL	NULL	4	3	26	Scenes	NULL	NULL	NULL	Both	1	2390	0	216304	10	214014	2	NULL	NULL	scene/s_342.bmp	NULL	NULL	NULL	NULL	NULL	NULL	Novel	FFSFFFSFFSSFSFSSSFSS	NULL	NULL	NULL	TrialProc	Relevant	BlockList	0	1	0	213904	9	213414	2	708	214122
TRSEscan	1141	3	60.002	1	1756073357	8/11/2010	11:12:31	2	BlockProc	SessionList	2	2	2	5	NULL	NULL	NULL	NULL	5	3	27	Faces	NULL	NULL	NULL	Both	1	6390	0	223304	10	217014	1	NULL	NULL	face/m_076.bmp	NULL	NULL	NULL	NULL	NULL	NULL	Novel	FFSFFFSFFSSFSFSSSFSS	NULL	NULL	NULL	TrialProc	Relevant	BlockList	1	1	0	216904	10	216414	1	876	217290
TRSEscan	1141	3	60.002	1	1756073357	8/11/2010	11:12:31	2	BlockProc	SessionList	2	2	2	6	NULL	NULL	NULL	NULL	6	3	28	Faces	NULL	NULL	NULL	Both	2	4390	0	228304	10	224014	0	NULL	NULL	face/m_076.bmp	NULL	NULL	NULL	NULL	NULL	NULL	Repeat	FFSFFFSFFSSFSFSSSFSS	NULL	NULL	NULL	TrialProc	Relevant	BlockList	1	2	0	223904	10	223414	2	652	224066
TRSEscan	1141	3	60.002	1	1756073357	8/11/2010	11:12:31	2	BlockProc	SessionList	2	2	2	7	NULL	NULL	NULL	NULL	7	3	29	Faces	NULL	NULL	NULL	Both	1	6390	0	235304	10	229014	0	NULL	NULL	face/f_126.bmp	NULL	NULL	NULL	NULL	NULL	NULL	Novel	FFSFFFSFFSSFSFSSSFSS	NULL	NULL	NULL	TrialProc	Relevant	BlockList	1	1	0	228904	10	228414	1	852	229266
TRSEscan	1141	3	60.002	1	1756073357	8/11/2010	11:12:31	2	BlockProc	SessionList	2	2	2	8	NULL	NULL	NULL	NULL	8	3	30	Scenes	NULL	NULL	NULL	Both	1	2390	0	238304	10	236014	3	NULL	NULL	scene/s_171.bmp	NULL	NULL	NULL	NULL	NULL	NULL	Novel	FFSFFFSFFSSFSFSSSFSS	NULL	NULL	NULL	TrialProc	Relevant	BlockList	1	1	0	235904	10	235414	1	540	235954
TRSEscan	1141	3	60.002	1	1756073357	8/11/2010	11:12:31	2	BlockProc	SessionList	2	2	2	9	NULL	NULL	NULL	NULL	9	3	31	Faces	NULL	NULL	NULL	Both	1	4390	0	243304	10	239014	1	NULL	NULL	face/m_056.bmp	NULL	NULL	NULL	NULL	NULL	NULL	Novel	FFSFFFSFFSSFSFSSSFSS	NULL	NULL	NULL	TrialProc	Relevant	BlockList	1	1	0	238904	10	238414	1	572	238986
TRSEscan	1141	3	60.002	1	1756073357	8/11/2010	11:12:31	2	BlockProc	SessionList	2	2	2	10	NULL	NULL	NULL	NULL	10	3	32	Faces	NULL	NULL	NULL	Both	2	6390	0	250304	10	244014	0	NULL	NULL	face/m_056.bmp	NULL	NULL	NULL	NULL	NULL	NULL	Repeat	FFSFFFSFFSSFSFSSSFSS	NULL	NULL	NULL	TrialProc	Relevant	BlockList	1	2	0	243904	10	243414	2	651	244065
TRSEscan	1141	3	60.002	1	1756073357	8/11/2010	11:12:31	2	BlockProc	SessionList	2	2	2	11	NULL	NULL	NULL	NULL	11	3	33	Scenes	NULL	NULL	NULL	Both	1	4390	0	255303	9	251013	2	NULL	NULL	scene/s_395.bmp	NULL	NULL	NULL	NULL	NULL	NULL	Novel	FFSFFFSFFSSFSFSSSFSS	NULL	NULL	NULL	TrialProc	Relevant	BlockList	1	1	0	250904	10	250414	1	475	250889
TRSEscan	1141	3	60.002	1	1756073357	8/11/2010	11:12:31	2	BlockProc	SessionList	2	2	2	12	NULL	NULL	NULL	NULL	12	3	34	Scenes	NULL	NULL	NULL	Both	2	2390	0	258303	10	256013	0	NULL	NULL	scene/s_395.bmp	NULL	NULL	NULL	NULL	NULL	NULL	Repeat	FFSFFFSFFSSFSFSSSFSS	NULL	NULL	NULL	TrialProc	Relevant	BlockList	0	2	0	255903	10	255413	1	484	255897
TRSEscan	1141	3	60.002	1	1756073357	8/11/2010	11:12:31	2	BlockProc	SessionList	2	2	2	13	NULL	NULL	NULL	NULL	13	3	35	Faces	NULL	NULL	NULL	Both	2	4390	0	263303	10	259013	2	NULL	NULL	face/m_056.bmp	NULL	NULL	NULL	NULL	NULL	NULL	Repeat	FFSFFFSFFSSFSFSSSFSS	NULL	NULL	NULL	TrialProc	Relevant	BlockList	1	2	0	258903	10	258413	2	676	259089
TRSEscan	1141	3	60.002	1	1756073357	8/11/2010	11:12:31	2	BlockProc	SessionList	2	2	2	14	NULL	NULL	NULL	NULL	14	3	36	Scenes	NULL	NULL	NULL	Both	1	2390	0	266303	10	264013	1	NULL	NULL	scene/s_391.bmp	NULL	NULL	NULL	NULL	NULL	NULL	Novel	FFSFFFSFFSSFSFSSSFSS	NULL	NULL	NULL	TrialProc	Relevant	BlockList	1	1	0	263903	10	263413	1	468	263881
TRSEscan	1141	3	60.002	1	1756073357	8/11/2010	11:12:31	2	BlockProc	SessionList	2	2	2	15	NULL	NULL	NULL	NULL	15	3	37	Faces	NULL	NULL	NULL	Both	1	6390	0	273303	10	267013	1	NULL	NULL	face/m_075.bmp	NULL	NULL	NULL	NULL	NULL	NULL	Novel	FFSFFFSFFSSFSFSSSFSS	NULL	NULL	NULL	TrialProc	Relevant	BlockList	1	1	0	266903	10	266413	1	820	267233
TRSEscan	1141	3	60.002	1	1756073357	8/11/2010	11:12:31	2	BlockProc	SessionList	2	2	2	16	NULL	NULL	NULL	NULL	16	3	38	Scenes	NULL	NULL	NULL	Both	1	4390	0	278303	10	274013	1	NULL	NULL	scene/s_251.bmp	NULL	NULL	NULL	NULL	NULL	NULL	Novel	FFSFFFSFFSSFSFSSSFSS	NULL	NULL	NULL	TrialProc	Relevant	BlockList	1	1	0	273903	10	273413	1	604	274017
TRSEscan	1141	3	60.002	1	1756073357	8/11/2010	11:12:31	2	BlockProc	SessionList	2	2	2	17	NULL	NULL	NULL	NULL	17	3	39	Scenes	NULL	NULL	NULL	Both	2	6390	0	285303	10	279013	0	NULL	NULL	scene/s_251.bmp	NULL	NULL	NULL	NULL	NULL	NULL	Repeat	FFSFFFSFFSSFSFSSSFSS	NULL	NULL	NULL	TrialProc	Relevant	BlockList	1	2	0	278903	10	278413	2	812	279225
TRSEscan	1141	3	60.002	1	1756073357	8/11/2010	11:12:31	2	BlockProc	SessionList	2	2	2	18	NULL	NULL	NULL	NULL	18	3	40	Scenes	NULL	NULL	NULL	Both	2	2390	0	288303	10	286013	0	NULL	NULL	scene/s_251.bmp	NULL	NULL	NULL	NULL	NULL	NULL	Repeat	FFSFFFSFFSSFSFSSSFSS	NULL	NULL	NULL	TrialProc	Relevant	BlockList	1	2	0	285903	10	285413	2	755	286168
TRSEscan	1141	3	60.002	1	1756073357	8/11/2010	11:12:31	2	BlockProc	SessionList	2	2	2	19	NULL	NULL	NULL	NULL	19	3	41	Faces	NULL	NULL	NULL	Both	2	2390	0	291303	10	289013	3	NULL	NULL	face/m_075.bmp	NULL	NULL	NULL	NULL	NULL	NULL	Repeat	FFSFFFSFFSSFSFSSSFSS	NULL	NULL	NULL	TrialProc	Relevant	BlockList	1	2	0	288903	10	288413	2	747	289160
TRSEscan	1141	3	60.002	1	1756073357	8/11/2010	11:12:31	2	BlockProc	SessionList	2	2	2	20	NULL	NULL	NULL	NULL	20	3	42	Scenes	NULL	NULL	NULL	Both	1	4390	0	296302	10	292012	1	NULL	NULL	scene/s_036.bmp	NULL	NULL	NULL	NULL	NULL	NULL	Novel	FFSFFFSFFSSFSFSSSFSS	NULL	NULL	NULL	TrialProc	Relevant	BlockList	1	1	0	291902	9	291412	1	740	292152
TRSEscan	1141	3	60.002	1	1756073357	8/11/2010	11:12:31	2	BlockProc	SessionList	2	2	2	21	NULL	NULL	NULL	NULL	21	3	43	Scenes	NULL	NULL	NULL	Both	2	6390	0	303302	10	297012	0	NULL	NULL	scene/s_036.bmp	NULL	NULL	NULL	NULL	NULL	NULL	Repeat	FFSFFFSFFSSFSFSSSFSS	NULL	NULL	NULL	TrialProc	Relevant	BlockList	1	2	0	296902	10	296412	2	652	297064
TRSEscan	1141	3	60.002	1	1756073357	8/11/2010	11:12:31	2	BlockProc	SessionList	2	2	2	22	NULL	NULL	NULL	NULL	22	3	44		NULL	NULL	NULL	Both			NULL	NULL	NULL	NULL		318302	316412		NULL	NULL	NULL	NULL	NULL	NULL			NULL	NULL	NULL	FeedbackProc		BlockList	NULL	NULL	NULL	NULL	NULL	NULL	NULL	NULL	NULL
TRSEscan	1141	3	60.002	1	1756073357	8/11/2010	11:12:31	3	BlockProc	SessionList	2	2	3	1	-999999	320352	10	318412	1	4	45		1	2	645	Faces			NULL	NULL	NULL	NULL		NULL	NULL		337055	1	322013	0	338051	337061			0	339951	338061	InstrProc		BlockList	NULL	NULL	NULL	NULL	NULL	NULL	NULL	NULL	NULL
TRSEscan	1141	3	60.002	1	1756073357	8/11/2010	11:12:31	3	BlockProc	SessionList	2	2	3	2	NULL	NULL	NULL	NULL	2	4	46	Faces	NULL	NULL	NULL	Faces	1	4390	0	344951	10	340661	0	NULL	NULL	face/m_065.bmp	NULL	NULL	NULL	NULL	NULL	NULL	Novel	FFSFFFSFFSSFSFSSSFSS	NULL	NULL	NULL	TrialProc	Relevant	BlockList	1	1	0	340551	10	340061	1	418	340479
TRSEscan	1141	3	60.002	1	1756073357	8/11/2010	11:12:31	3	BlockProc	SessionList	2	2	3	3	NULL	NULL	NULL	NULL	3	4	47	Faces	NULL	NULL	NULL	Faces	1	2390	0	347951	10	345661	0	NULL	NULL	face/f_022.bmp	NULL	NULL	NULL	NULL	NULL	NULL	Novel	FFSFFFSFFSSFSFSSSFSS	NULL	NULL	NULL	TrialProc	Relevant	BlockList	1	1	0	345551	10	345061	1	562	345623
TRSEscan	1141	3	60.002	1	1756073357	8/11/2010	11:12:31	3	BlockProc	SessionList	2	2	3	4	NULL	NULL	NULL	NULL	4	4	48	Scenes	NULL	NULL	NULL	Faces	1	2390	0	350951	10	348661	2	NULL	NULL	scene/s_311.bmp	NULL	NULL	NULL	NULL	NULL	NULL	Novel	FFSFFFSFFSSFSFSSSFSS	NULL	NULL	NULL	TrialProc	Irrelevant	BlockList	1	1	0	348551	10	348061	1	546	348607
TRSEscan	1141	3	60.002	1	1756073357	8/11/2010	11:12:31	3	BlockProc	SessionList	2	2	3	5	NULL	NULL	NULL	NULL	5	4	49	Faces	NULL	NULL	NULL	Faces	1	6390	0	357951	10	351661	1	NULL	NULL	face/f_008.bmp	NULL	NULL	NULL	NULL	NULL	NULL	Novel	FFSFFFSFFSSFSFSSSFSS	NULL	NULL	NULL	TrialProc	Relevant	BlockList	1	1	0	351551	10	351061	1	626	351687
TRSEscan	1141	3	60.002	1	1756073357	8/11/2010	11:12:31	3	BlockProc	SessionList	2	2	3	6	NULL	NULL	NULL	NULL	6	4	50	Faces	NULL	NULL	NULL	Faces	2	4390	0	362951	10	358661	0	NULL	NULL	face/f_008.bmp	NULL	NULL	NULL	NULL	NULL	NULL	Repeat	FFSFFFSFFSSFSFSSSFSS	NULL	NULL	NULL	TrialProc	Relevant	BlockList	1	2	0	358551	10	358061	2	586	358647
TRSEscan	1141	3	60.002	1	1756073357	8/11/2010	11:12:31	3	BlockProc	SessionList	2	2	3	7	NULL	NULL	NULL	NULL	7	4	51	Faces	NULL	NULL	NULL	Faces	1	6390	0	369951	10	363661	0	NULL	NULL	face/f_035.bmp	NULL	NULL	NULL	NULL	NULL	NULL	Novel	FFSFFFSFFSSFSFSSSFSS	NULL	NULL	NULL	TrialProc	Relevant	BlockList	1	1	0	363551	10	363061	1	513	363574
TRSEscan	1141	3	60.002	1	1756073357	8/11/2010	11:12:31	3	BlockProc	SessionList	2	2	3	8	NULL	NULL	NULL	NULL	8	4	52	Scenes	NULL	NULL	NULL	Faces	1	2390	0	372951	10	370661	3	NULL	NULL	scene/s_389.bmp	NULL	NULL	NULL	NULL	NULL	NULL	Novel	FFSFFFSFFSSFSFSSSFSS	NULL	NULL	NULL	TrialProc	Irrelevant	BlockList	1	1	0	370551	10	370061	1	417	370478
TRSEscan	1141	3	60.002	1	1756073357	8/11/2010	11:12:31	3	BlockProc	SessionList	2	2	3	9	NULL	NULL	NULL	NULL	9	4	53	Faces	NULL	NULL	NULL	Faces	1	4390	0	377950	10	373660	1	NULL	NULL	face/m_121.bmp	NULL	NULL	NULL	NULL	NULL	NULL	Novel	FFSFFFSFFSSFSFSSSFSS	NULL	NULL	NULL	TrialProc	Relevant	BlockList	1	1	0	373550	9	373060	1	522	373582
TRSEscan	1141	3	60.002	1	1756073357	8/11/2010	11:12:31	3	BlockProc	SessionList	2	2	3	10	NULL	NULL	NULL	NULL	10	4	54	Faces	NULL	NULL	NULL	Faces	2	6390	0	384950	10	378660	0	NULL	NULL	face/m_121.bmp	NULL	NULL	NULL	NULL	NULL	NULL	Repeat	FFSFFFSFFSSFSFSSSFSS	NULL	NULL	NULL	TrialProc	Relevant	BlockList	1	2	0	378550	10	378060	2	714	378774
TRSEscan	1141	3	60.002	1	1756073357	8/11/2010	11:12:31	3	BlockProc	SessionList	2	2	3	11	NULL	NULL	NULL	NULL	11	4	55	Scenes	NULL	NULL	NULL	Faces	1	4390	0	389950	10	385660	2	NULL	NULL	scene/s_177.bmp	NULL	NULL	NULL	NULL	NULL	NULL	Novel	FFSFFFSFFSSFSFSSSFSS	NULL	NULL	NULL	TrialProc	Irrelevant	BlockList	1	1	0	385550	10	385060	1	498	385558
TRSEscan	1141	3	60.002	1	1756073357	8/11/2010	11:12:31	3	BlockProc	SessionList	2	2	3	12	NULL	NULL	NULL	NULL	12	4	56	Scenes	NULL	NULL	NULL	Faces	1	2390	0	392950	10	390660	0	NULL	NULL	scene/s_177.bmp	NULL	NULL	NULL	NULL	NULL	NULL	Repeat	FFSFFFSFFSSFSFSSSFSS	NULL	NULL	NULL	TrialProc	Irrelevant	BlockList	1	1	0	390550	10	390060	1	602	390662
TRSEscan	1141	3	60.002	1	1756073357	8/11/2010	11:12:31	3	BlockProc	SessionList	2	2	3	13	NULL	NULL	NULL	NULL	13	4	57	Faces	NULL	NULL	NULL	Faces	2	4390	0	397950	10	393660	2	NULL	NULL	face/m_121.bmp	NULL	NULL	NULL	NULL	NULL	NULL	Repeat	FFSFFFSFFSSFSFSSSFSS	NULL	NULL	NULL	TrialProc	Relevant	BlockList	1	2	0	393550	10	393060	2	618	393678
TRSEscan	1141	3	60.002	1	1756073357	8/11/2010	11:12:31	3	BlockProc	SessionList	2	2	3	14	NULL	NULL	NULL	NULL	14	4	58	Scenes	NULL	NULL	NULL	Faces	1	2390	0	400950	10	398660	1	NULL	NULL	scene/s_028.bmp	NULL	NULL	NULL	NULL	NULL	NULL	Novel	FFSFFFSFFSSFSFSSSFSS	NULL	NULL	NULL	TrialProc	Irrelevant	BlockList	1	1	0	398550	10	398060	1	450	398510
TRSEscan	1141	3	60.002	1	1756073357	8/11/2010	11:12:31	3	BlockProc	SessionList	2	2	3	15	NULL	NULL	NULL	NULL	15	4	59	Faces	NULL	NULL	NULL	Faces	1	6390	0	407950	10	401660	1	NULL	NULL	face/f_007.bmp	NULL	NULL	NULL	NULL	NULL	NULL	Novel	FFSFFFSFFSSFSFSSSFSS	NULL	NULL	NULL	TrialProc	Relevant	BlockList	1	1	0	401550	10	401060	1	697	401757
TRSEscan	1141	3	60.002	1	1756073357	8/11/2010	11:12:31	3	BlockProc	SessionList	2	2	3	16	NULL	NULL	NULL	NULL	16	4	60	Scenes	NULL	NULL	NULL	Faces	1	4390	0	412950	10	408660	1	NULL	NULL	scene/s_320.bmp	NULL	NULL	NULL	NULL	NULL	NULL	Novel	FFSFFFSFFSSFSFSSSFSS	NULL	NULL	NULL	TrialProc	Irrelevant	BlockList	1	1	0	408550	10	408060	1	497	408557
TRSEscan	1141	3	60.002	1	1756073357	8/11/2010	11:12:31	3	BlockProc	SessionList	2	2	3	17	NULL	NULL	NULL	NULL	17	4	61	Scenes	NULL	NULL	NULL	Faces	1	6390	0	419949	10	413659	0	NULL	NULL	scene/s_320.bmp	NULL	NULL	NULL	NULL	NULL	NULL	Repeat	FFSFFFSFFSSFSFSSSFSS	NULL	NULL	NULL	TrialProc	Irrelevant	BlockList	1	1	0	413549	9	413059	1	402	413461
TRSEscan	1141	3	60.002	1	1756073357	8/11/2010	11:12:31	3	BlockProc	SessionList	2	2	3	18	NULL	NULL	NULL	NULL	18	4	62	Scenes	NULL	NULL	NULL	Faces	1	2390	0	422949	10	420659	0	NULL	NULL	scene/s_320.bmp	NULL	NULL	NULL	NULL	NULL	NULL	Repeat	FFSFFFSFFSSFSFSSSFSS	NULL	NULL	NULL	TrialProc	Irrelevant	BlockList	1	1	0	420549	10	420059	1	442	420501
TRSEscan	1141	3	60.002	1	1756073357	8/11/2010	11:12:31	3	BlockProc	SessionList	2	2	3	19	NULL	NULL	NULL	NULL	19	4	63	Faces	NULL	NULL	NULL	Faces	2	2390	0	425949	10	423659	3	NULL	NULL	face/f_007.bmp	NULL	NULL	NULL	NULL	NULL	NULL	Repeat	FFSFFFSFFSSFSFSSSFSS	NULL	NULL	NULL	TrialProc	Relevant	BlockList	0	2	0	423549	10	423059	1	522	423581
TRSEscan	1141	3	60.002	1	1756073357	8/11/2010	11:12:31	3	BlockProc	SessionList	2	2	3	20	NULL	NULL	NULL	NULL	20	4	64	Scenes	NULL	NULL	NULL	Faces	1	4390	0	430949	10	426659	1	NULL	NULL	scene/s_401.bmp	NULL	NULL	NULL	NULL	NULL	NULL	Novel	FFSFFFSFFSSFSFSSSFSS	NULL	NULL	NULL	TrialProc	Irrelevant	BlockList	1	1	0	426549	10	426059	1	658	426717
TRSEscan	1141	3	60.002	1	1756073357	8/11/2010	11:12:31	3	BlockProc	SessionList	2	2	3	21	NULL	NULL	NULL	NULL	21	4	65	Scenes	NULL	NULL	NULL	Faces	1	6390	0	437949	10	431659	0	NULL	NULL	scene/s_401.bmp	NULL	NULL	NULL	NULL	NULL	NULL	Repeat	FFSFFFSFFSSFSFSSSFSS	NULL	NULL	NULL	TrialProc	Irrelevant	BlockList	1	1	0	431549	10	431059	1	458	431517
TRSEscan	1141	3	60.002	1	1756073357	8/11/2010	11:12:31	3	BlockProc	SessionList	2	2	3	22	NULL	NULL	NULL	NULL	22	4	66		NULL	NULL	NULL	Faces			NULL	NULL	NULL	NULL		452949	451059		NULL	NULL	NULL	NULL	NULL	NULL			NULL	NULL	NULL	FeedbackProc		BlockList	NULL	NULL	NULL	NULL	NULL	NULL	NULL	NULL	NULL
TRSEscan	1141	3	60.002	1	1756073357	8/11/2010	11:12:31	4	BlockProc	SessionList	2	2	4	1	-999999	455564	9	453058	1	5	67		1	2	773	Scenes			NULL	NULL	NULL	NULL		NULL	NULL		471580	1	457359	0	472581	471591			0	474481	472591	InstrProc		BlockList	NULL	NULL	NULL	NULL	NULL	NULL	NULL	NULL	NULL
TRSEscan	1141	3	60.002	1	1756073357	8/11/2010	11:12:31	4	BlockProc	SessionList	2	2	4	2	NULL	NULL	NULL	NULL	2	5	68	Faces	NULL	NULL	NULL	Scenes	1	4390	0	479481	10	475191	0	NULL	NULL	face/m_118.bmp	NULL	NULL	NULL	NULL	NULL	NULL	Novel	FFSFFFSFFSSFSFSSSFSS	NULL	NULL	NULL	TrialProc	Irrelevant	BlockList	1	1	0	475081	10	474591	1	661	475252
TRSEscan	1141	3	60.002	1	1756073357	8/11/2010	11:12:31	4	BlockProc	SessionList	2	2	4	3	NULL	NULL	NULL	NULL	3	5	69	Faces	NULL	NULL	NULL	Scenes	1	2390	0	482481	10	480191	0	NULL	NULL	face/f_132.bmp	NULL	NULL	NULL	NULL	NULL	NULL	Novel	FFSFFFSFFSSFSFSSSFSS	NULL	NULL	NULL	TrialProc	Irrelevant	BlockList	1	1	0	480081	10	479591	1	364	479955
TRSEscan	1141	3	60.002	1	1756073357	8/11/2010	11:12:31	4	BlockProc	SessionList	2	2	4	4	NULL	NULL	NULL	NULL	4	5	70	Scenes	NULL	NULL	NULL	Scenes	1	2390	0	485481	10	483191	2	NULL	NULL	scene/s_064.bmp	NULL	NULL	NULL	NULL	NULL	NULL	Novel	FFSFFFSFFSSFSFSSSFSS	NULL	NULL	NULL	TrialProc	Relevant	BlockList	0	1	0	483081	10	482591	2	564	483155
TRSEscan	1141	3	60.002	1	1756073357	8/11/2010	11:12:31	4	BlockProc	SessionList	2	2	4	5	NULL	NULL	NULL	NULL	5	5	71	Faces	NULL	NULL	NULL	Scenes	1	6390	0	492481	10	486191	1	NULL	NULL	face/f_017.bmp	NULL	NULL	NULL	NULL	NULL	NULL	Novel	FFSFFFSFFSSFSFSSSFSS	NULL	NULL	NULL	TrialProc	Irrelevant	BlockList	1	1	0	486081	10	485591	1	500	486091
TRSEscan	1141	3	60.002	1	1756073357	8/11/2010	11:12:31	4	BlockProc	SessionList	2	2	4	6	NULL	NULL	NULL	NULL	6	5	72	Faces	NULL	NULL	NULL	Scenes	1	4390	0	497481	10	493191	0	NULL	NULL	face/f_017.bmp	NULL	NULL	NULL	NULL	NULL	NULL	Repeat	FFSFFFSFFSSFSFSSSFSS	NULL	NULL	NULL	TrialProc	Irrelevant	BlockList	1	1	0	493081	10	492591	1	436	493027
TRSEscan	1141	3	60.002	1	1756073357	8/11/2010	11:12:31	4	BlockProc	SessionList	2	2	4	7	NULL	NULL	NULL	NULL	7	5	73	Faces	NULL	NULL	NULL	Scenes	1	6390	0	504481	10	498191	0	NULL	NULL	face/m_110.bmp	NULL	NULL	NULL	NULL	NULL	NULL	Novel	FFSFFFSFFSSFSFSSSFSS	NULL	NULL	NULL	TrialProc	Irrelevant	BlockList	1	1	0	498081	10	497591	1	460	498051
TRSEscan	1141	3	60.002	1	1756073357	8/11/2010	11:12:31	4	BlockProc	SessionList	2	2	4	8	NULL	NULL	NULL	NULL	8	5	74	Scenes	NULL	NULL	NULL	Scenes	1	2390	0	507481	10	505191	3	NULL	NULL	scene/s_289.bmp	NULL	NULL	NULL	NULL	NULL	NULL	Novel	FFSFFFSFFSSFSFSSSFSS	NULL	NULL	NULL	TrialProc	Relevant	BlockList	1	1	0	505081	10	504591	1	652	505243
TRSEscan	1141	3	60.002	1	1756073357	8/11/2010	11:12:31	4	BlockProc	SessionList	2	2	4	9	NULL	NULL	NULL	NULL	9	5	75	Faces	NULL	NULL	NULL	Scenes	1	4390	0	512480	10	508190	1	NULL	NULL	face/m_001.bmp	NULL	NULL	NULL	NULL	NULL	NULL	Novel	FFSFFFSFFSSFSFSSSFSS	NULL	NULL	NULL	TrialProc	Irrelevant	BlockList	1	1	0	508080	9	507590	1	549	508139
TRSEscan	1141	3	60.002	1	1756073357	8/11/2010	11:12:31	4	BlockProc	SessionList	2	2	4	10	NULL	NULL	NULL	NULL	10	5	76	Faces	NULL	NULL	NULL	Scenes	1	6390	0	519480	10	513190	0	NULL	NULL	face/m_001.bmp	NULL	NULL	NULL	NULL	NULL	NULL	Repeat	FFSFFFSFFSSFSFSSSFSS	NULL	NULL	NULL	TrialProc	Irrelevant	BlockList	1	1	0	513080	10	512590	1	397	512987
TRSEscan	1141	3	60.002	1	1756073357	8/11/2010	11:12:31	4	BlockProc	SessionList	2	2	4	11	NULL	NULL	NULL	NULL	11	5	77	Scenes	NULL	NULL	NULL	Scenes	1	4390	0	524480	10	520190	2	NULL	NULL	scene/s_259.bmp	NULL	NULL	NULL	NULL	NULL	NULL	Novel	FFSFFFSFFSSFSFSSSFSS	NULL	NULL	NULL	TrialProc	Relevant	BlockList	1	1	0	520080	10	519590	1	413	520003
TRSEscan	1141	3	60.002	1	1756073357	8/11/2010	11:12:31	4	BlockProc	SessionList	2	2	4	12	NULL	NULL	NULL	NULL	12	5	78	Scenes	NULL	NULL	NULL	Scenes	2	2390	0	527480	10	525190	0	NULL	NULL	scene/s_259.bmp	NULL	NULL	NULL	NULL	NULL	NULL	Repeat	FFSFFFSFFSSFSFSSSFSS	NULL	NULL	NULL	TrialProc	Relevant	BlockList	1	2	0	525080	10	524590	2	612	525202
TRSEscan	1141	3	60.002	1	1756073357	8/11/2010	11:12:31	4	BlockProc	SessionList	2	2	4	13	NULL	NULL	NULL	NULL	13	5	79	Faces	NULL	NULL	NULL	Scenes	1	4390	0	532480	10	528190	2	NULL	NULL	face/m_001.bmp	NULL	NULL	NULL	NULL	NULL	NULL	Repeat	FFSFFFSFFSSFSFSSSFSS	NULL	NULL	NULL	TrialProc	Irrelevant	BlockList	1	1	0	528080	10	527590	1	484	528074
TRSEscan	1141	3	60.002	1	1756073357	8/11/2010	11:12:31	4	BlockProc	SessionList	2	2	4	14	NULL	NULL	NULL	NULL	14	5	80	Scenes	NULL	NULL	NULL	Scenes	1	2390	0	535480	10	533190	1	NULL	NULL	scene/s_222.bmp	NULL	NULL	NULL	NULL	NULL	NULL	Novel	FFSFFFSFFSSFSFSSSFSS	NULL	NULL	NULL	TrialProc	Relevant	BlockList	1	1	0	533080	10	532590	1	580	533170
TRSEscan	1141	3	60.002	1	1756073357	8/11/2010	11:12:31	4	BlockProc	SessionList	2	2	4	15	NULL	NULL	NULL	NULL	15	5	81	Faces	NULL	NULL	NULL	Scenes	1	6390	0	542480	10	536190	1	NULL	NULL	face/f_094.bmp	NULL	NULL	NULL	NULL	NULL	NULL	Novel	FFSFFFSFFSSFSFSSSFSS	NULL	NULL	NULL	TrialProc	Irrelevant	BlockList	1	1	0	536080	10	535590	1	732	536322
TRSEscan	1141	3	60.002	1	1756073357	8/11/2010	11:12:31	4	BlockProc	SessionList	2	2	4	16	NULL	NULL	NULL	NULL	16	5	82	Scenes	NULL	NULL	NULL	Scenes	1	4390	0	547480	10	543190	1	NULL	NULL	scene/s_284.bmp	NULL	NULL	NULL	NULL	NULL	NULL	Novel	FFSFFFSFFSSFSFSSSFSS	NULL	NULL	NULL	TrialProc	Relevant	BlockList	1	1	0	543080	10	542590	1	668	543258
TRSEscan	1141	3	60.002	1	1756073357	8/11/2010	11:12:31	4	BlockProc	SessionList	2	2	4	17	NULL	NULL	NULL	NULL	17	5	83	Scenes	NULL	NULL	NULL	Scenes	2	6390	0	554479	10	548189	0	NULL	NULL	scene/s_284.bmp	NULL	NULL	NULL	NULL	NULL	NULL	Repeat	FFSFFFSFFSSFSFSSSFSS	NULL	NULL	NULL	TrialProc	Relevant	BlockList	0	2	0	548079	9	547589	1	581	548170
TRSEscan	1141	3	60.002	1	1756073357	8/11/2010	11:12:31	4	BlockProc	SessionList	2	2	4	18	NULL	NULL	NULL	NULL	18	5	84	Scenes	NULL	NULL	NULL	Scenes	2	2390	0	557479	10	555189	0	NULL	NULL	scene/s_284.bmp	NULL	NULL	NULL	NULL	NULL	NULL	Repeat	FFSFFFSFFSSFSFSSSFSS	NULL	NULL	NULL	TrialProc	Relevant	BlockList	1	2	0	555079	10	554589	2	613	555202
TRSEscan	1141	3	60.002	1	1756073357	8/11/2010	11:12:31	4	BlockProc	SessionList	2	2	4	19	NULL	NULL	NULL	NULL	19	5	85	Faces	NULL	NULL	NULL	Scenes	1	2390	0	560479	10	558189	3	NULL	NULL	face/f_094.bmp	NULL	NULL	NULL	NULL	NULL	NULL	Repeat	FFSFFFSFFSSFSFSSSFSS	NULL	NULL	NULL	TrialProc	Irrelevant	BlockList	1	1	0	558079	10	557589	1	517	558106
TRSEscan	1141	3	60.002	1	1756073357	8/11/2010	11:12:31	4	BlockProc	SessionList	2	2	4	20	NULL	NULL	NULL	NULL	20	5	86	Scenes	NULL	NULL	NULL	Scenes	1	4390	0	565479	10	561189	1	NULL	NULL	scene/s_204.bmp	NULL	NULL	NULL	NULL	NULL	NULL	Novel	FFSFFFSFFSSFSFSSSFSS	NULL	NULL	NULL	TrialProc	Relevant	BlockList	1	1	0	561079	10	560589	1	509	561098
TRSEscan	1141	3	60.002	1	1756073357	8/11/2010	11:12:31	4	BlockProc	SessionList	2	2	4	21	NULL	NULL	NULL	NULL	21	5	87	Scenes	NULL	NULL	NULL	Scenes	2	6390	0	572479	10	566189	0	NULL	NULL	scene/s_204.bmp	NULL	NULL	NULL	NULL	NULL	NULL	Repeat	FFSFFFSFFSSFSFSSSFSS	NULL	NULL	NULL	TrialProc	Relevant	BlockList	1	2	0	566079	10	565589	2	476	566065
TRSEscan	1141	3	60.002	1	1756073357	8/11/2010	11:12:31	4	BlockProc	SessionList	2	2	4	22	NULL	NULL	NULL	NULL	22	5	88		NULL	NULL	NULL	Scenes			NULL	NULL	NULL	NULL		587479	585589		NULL	NULL	NULL	NULL	NULL	NULL			NULL	NULL	NULL	FeedbackProc		BlockList	NULL	NULL	NULL	NULL	NULL	NULL	NULL	NULL	NULL
TRSEscan	1141	4	60.002	1	-638018891	8/11/2010	11:22:50	1	BlockProc	SessionList	2	2	1	1	-999999	61034	1	55448	1	2	1		1	2	1259	Both			NULL	NULL	NULL	NULL		NULL	NULL		71146	1	63315	0	72137	71147			0	74037	72147	InstrProc		BlockList	NULL	NULL	NULL	NULL	NULL	NULL	NULL	NULL	NULL
TRSEscan	1141	4	60.002	1	-638018891	8/11/2010	11:22:50	1	BlockProc	SessionList	2	2	1	2	NULL	NULL	NULL	NULL	2	2	2	Scenes	NULL	NULL	NULL	Both	1	2390	0	77037	10	74747	0	NULL	NULL	scene/s_286.bmp	NULL	NULL	NULL	NULL	NULL	NULL	Novel	SSFSSSFSFSSFFSFFFSFF	NULL	NULL	NULL	TrialProc	Relevant	BlockList	1	1	0	74637	10	74147	1	598	74745
TRSEscan	1141	4	60.002	1	-638018891	8/11/2010	11:22:50	1	BlockProc	SessionList	2	2	1	3	NULL	NULL	NULL	NULL	3	2	3	Scenes	NULL	NULL	NULL	Both	2	4390	0	82037	10	77747	0	NULL	NULL	scene/s_286.bmp	NULL	NULL	NULL	NULL	NULL	NULL	Repeat	SSFSSSFSFSSFFSFFFSFF	NULL	NULL	NULL	TrialProc	Relevant	BlockList	1	2	0	77637	10	77147	2	622	77769
TRSEscan	1141	4	60.002	1	-638018891	8/11/2010	11:22:50	1	BlockProc	SessionList	2	2	1	4	NULL	NULL	NULL	NULL	4	2	4	Faces	NULL	NULL	NULL	Both	1	6390	0	89037	10	82747	2	NULL	NULL	face/f_019.bmp	NULL	NULL	NULL	NULL	NULL	NULL	Novel	SSFSSSFSFSSFFSFFFSFF	NULL	NULL	NULL	TrialProc	Relevant	BlockList	1	1	0	82637	10	82147	1	446	82593
TRSEscan	1141	4	60.002	1	-638018891	8/11/2010	11:22:50	1	BlockProc	SessionList	2	2	1	5	NULL	NULL	NULL	NULL	5	2	5	Scenes	NULL	NULL	NULL	Both	2	4390	0	94037	10	89747	1	NULL	NULL	scene/s_286.bmp	NULL	NULL	NULL	NULL	NULL	NULL	Repeat	SSFSSSFSFSSFFSFFFSFF	NULL	NULL	NULL	TrialProc	Relevant	BlockList	0	2	0	89637	10	89147	1	422	89569
TRSEscan	1141	4	60.002	1	-638018891	8/11/2010	11:22:50	1	BlockProc	SessionList	2	2	1	6	NULL	NULL	NULL	NULL	6	2	6	Scenes	NULL	NULL	NULL	Both	1	2390	0	97037	10	94747	0	NULL	NULL	scene/s_135.bmp	NULL	NULL	NULL	NULL	NULL	NULL	Novel	SSFSSSFSFSSFFSFFFSFF	NULL	NULL	NULL	TrialProc	Relevant	BlockList	1	1	0	94637	10	94147	1	622	94769
TRSEscan	1141	4	60.002	1	-638018891	8/11/2010	11:22:50	1	BlockProc	SessionList	2	2	1	7	NULL	NULL	NULL	NULL	7	2	7	Scenes	NULL	NULL	NULL	Both	1	4390	0	102037	10	97747	0	NULL	NULL	scene/s_191.bmp	NULL	NULL	NULL	NULL	NULL	NULL	Novel	SSFSSSFSFSSFFSFFFSFF	NULL	NULL	NULL	TrialProc	Relevant	BlockList	1	1	0	97637	10	97147	1	694	97841
TRSEscan	1141	4	60.002	1	-638018891	8/11/2010	11:22:50	1	BlockProc	SessionList	2	2	1	8	NULL	NULL	NULL	NULL	8	2	8	Faces	NULL	NULL	NULL	Both	2	2390	0	105036	10	102746	3	NULL	NULL	face/f_019.bmp	NULL	NULL	NULL	NULL	NULL	NULL	Repeat	SSFSSSFSFSSFFSFFFSFF	NULL	NULL	NULL	TrialProc	Relevant	BlockList	1	2	0	102636	9	102146	2	567	102713
TRSEscan	1141	4	60.002	1	-638018891	8/11/2010	11:22:50	1	BlockProc	SessionList	2	2	1	9	NULL	NULL	NULL	NULL	9	2	9	Scenes	NULL	NULL	NULL	Both	2	6390	0	112036	10	105746	1	NULL	NULL	scene/s_191.bmp	NULL	NULL	NULL	NULL	NULL	NULL	Repeat	SSFSSSFSFSSFFSFFFSFF	NULL	NULL	NULL	TrialProc	Relevant	BlockList	1	2	0	105636	10	105146	2	831	105977
TRSEscan	1141	4	60.002	1	-638018891	8/11/2010	11:22:50	1	BlockProc	SessionList	2	2	1	10	NULL	NULL	NULL	NULL	10	2	10	Faces	NULL	NULL	NULL	Both	2	4390	0	117036	10	112746	1	NULL	NULL	face/f_019.bmp	NULL	NULL	NULL	NULL	NULL	NULL	Repeat	SSFSSSFSFSSFFSFFFSFF	NULL	NULL	NULL	TrialProc	Relevant	BlockList	1	2	0	112636	10	112146	2	695	112841
TRSEscan	1141	4	60.002	1	-638018891	8/11/2010	11:22:50	1	BlockProc	SessionList	2	2	1	11	NULL	NULL	NULL	NULL	11	2	11	Scenes	NULL	NULL	NULL	Both	1	6390	0	124036	10	117746	1	NULL	NULL	scene/s_367.bmp	NULL	NULL	NULL	NULL	NULL	NULL	Novel	SSFSSSFSFSSFFSFFFSFF	NULL	NULL	NULL	TrialProc	Relevant	BlockList	0	1	0	117636	10	117146	2	710	117856
TRSEscan	1141	4	60.002	1	-638018891	8/11/2010	11:22:50	1	BlockProc	SessionList	2	2	1	12	NULL	NULL	NULL	NULL	12	2	12	Scenes	NULL	NULL	NULL	Both	1	2390	0	127036	10	124746	0	NULL	NULL	scene/s_089.bmp	NULL	NULL	NULL	NULL	NULL	NULL	Novel	SSFSSSFSFSSFFSFFFSFF	NULL	NULL	NULL	TrialProc	Relevant	BlockList	1	1	0	124636	10	124146	1	926	125072
TRSEscan	1141	4	60.002	1	-638018891	8/11/2010	11:22:50	1	BlockProc	SessionList	2	2	1	13	NULL	NULL	NULL	NULL	13	2	13	Faces	NULL	NULL	NULL	Both	1	2390	0	130036	10	127746	2	NULL	NULL	face/m_094.bmp	NULL	NULL	NULL	NULL	NULL	NULL	Novel	SSFSSSFSFSSFFSFFFSFF	NULL	NULL	NULL	TrialProc	Relevant	BlockList	1	1	0	127636	10	127146	1	582	127728
TRSEscan	1141	4	60.002	1	-638018891	8/11/2010	11:22:50	1	BlockProc	SessionList	2	2	1	14	NULL	NULL	NULL	NULL	14	2	14	Faces	NULL	NULL	NULL	Both	1	6390	0	137036	10	130746	0	NULL	NULL	face/f_125.bmp	NULL	NULL	NULL	NULL	NULL	NULL	Novel	SSFSSSFSFSSFFSFFFSFF	NULL	NULL	NULL	TrialProc	Relevant	BlockList	1	1	0	130636	10	130146	1	694	130840
TRSEscan	1141	4	60.002	1	-638018891	8/11/2010	11:22:50	1	BlockProc	SessionList	2	2	1	15	NULL	NULL	NULL	NULL	15	2	15	Scenes	NULL	NULL	NULL	Both	1	4390	0	142035	9	137745	2	NULL	NULL	scene/s_197.bmp	NULL	NULL	NULL	NULL	NULL	NULL	Novel	SSFSSSFSFSSFFSFFFSFF	NULL	NULL	NULL	TrialProc	Relevant	BlockList	1	1	0	137636	10	137146	1	638	137784
TRSEscan	1141	4	60.002	1	-638018891	8/11/2010	11:22:50	1	BlockProc	SessionList	2	2	1	16	NULL	NULL	NULL	NULL	16	2	16	Faces	NULL	NULL	NULL	Both	2	6390	0	149035	10	142745	1	NULL	NULL	face/f_125.bmp	NULL	NULL	NULL	NULL	NULL	NULL	Repeat	SSFSSSFSFSSFFSFFFSFF	NULL	NULL	NULL	TrialProc	Relevant	BlockList	1	2	0	142635	10	142145	2	967	143112
TRSEscan	1141	4	60.002	1	-638018891	8/11/2010	11:22:50	1	BlockProc	SessionList	2	2	1	17	NULL	NULL	NULL	NULL	17	2	17	Faces	NULL	NULL	NULL	Both	1	2390	0	152035	10	149745	0	NULL	NULL	face/m_107.bmp	NULL	NULL	NULL	NULL	NULL	NULL	Novel	SSFSSSFSFSSFFSFFFSFF	NULL	NULL	NULL	TrialProc	Relevant	BlockList	1	1	0	149635	10	149145	1	551	149696
TRSEscan	1141	4	60.002	1	-638018891	8/11/2010	11:22:50	1	BlockProc	SessionList	2	2	1	18	NULL	NULL	NULL	NULL	18	2	18	Faces	NULL	NULL	NULL	Both	1	4390	0	157035	10	152745	0	NULL	NULL	face/f_091.bmp	NULL	NULL	NULL	NULL	NULL	NULL	Novel	SSFSSSFSFSSFFSFFFSFF	NULL	NULL	NULL	TrialProc	Relevant	BlockList	1	1	0	152635	10	152145	1	622	152767
TRSEscan	1141	4	60.002	1	-638018891	8/11/2010	11:22:50	1	BlockProc	SessionList	2	2	1	19	NULL	NULL	NULL	NULL	19	2	19	Scenes	NULL	NULL	NULL	Both	2	2390	0	160035	10	157745	3	NULL	NULL	scene/s_197.bmp	NULL	NULL	NULL	NULL	NULL	NULL	Repeat	SSFSSSFSFSSFFSFFFSFF	NULL	NULL	NULL	TrialProc	Relevant	BlockList	0	2	0	157635	10	157145	1	1278	158423
TRSEscan	1141	4	60.002	1	-638018891	8/11/2010	11:22:50	1	BlockProc	SessionList	2	2	1	20	NULL	NULL	NULL	NULL	20	2	20	Faces	NULL	NULL	NULL	Both	1	4390	0	165035	10	160745	1	NULL	NULL	face/m_099.bmp	NULL	NULL	NULL	NULL	NULL	NULL	Novel	SSFSSSFSFSSFFSFFFSFF	NULL	NULL	NULL	TrialProc	Relevant	BlockList	1	1	0	160635	10	160145	1	542	160687
TRSEscan	1141	4	60.002	1	-638018891	8/11/2010	11:22:50	1	BlockProc	SessionList	2	2	1	21	NULL	NULL	NULL	NULL	21	2	21	Faces	NULL	NULL	NULL	Both	2	6390	0	172035	10	165745	0	NULL	NULL	face/m_099.bmp	NULL	NULL	NULL	NULL	NULL	NULL	Repeat	SSFSSSFSFSSFFSFFFSFF	NULL	NULL	NULL	TrialProc	Relevant	BlockList	1	2	0	165635	10	165145	2	590	165735
TRSEscan	1141	4	60.002	1	-638018891	8/11/2010	11:22:50	1	BlockProc	SessionList	2	2	1	22	NULL	NULL	NULL	NULL	22	2	22		NULL	NULL	NULL	Both			NULL	NULL	NULL	NULL		187034	185144		NULL	NULL	NULL	NULL	NULL	NULL			NULL	NULL	NULL	FeedbackProc		BlockList	NULL	NULL	NULL	NULL	NULL	NULL	NULL	NULL	NULL
TRSEscan	1141	4	60.002	1	-638018891	8/11/2010	11:22:50	2	BlockProc	SessionList	2	2	2	1	-999999	188311	10	187144	1	3	23		1	2	783	Faces			NULL	NULL	NULL	NULL		NULL	NULL		205798	1	190096	0	206800	205810			0	208700	206810	InstrProc		BlockList	NULL	NULL	NULL	NULL	NULL	NULL	NULL	NULL	NULL
TRSEscan	1141	4	60.002	1	-638018891	8/11/2010	11:22:50	2	BlockProc	SessionList	2	2	2	2	NULL	NULL	NULL	NULL	2	3	24	Scenes	NULL	NULL	NULL	Faces	1	2390	0	211700	10	209410	0	NULL	NULL	scene/s_152.bmp	NULL	NULL	NULL	NULL	NULL	NULL	Novel	SSFSSSFSFSSFFSFFFSFF	NULL	NULL	NULL	TrialProc	Irrelevant	BlockList	1	1	0	209300	10	208810	1	716	209526
TRSEscan	1141	4	60.002	1	-638018891	8/11/2010	11:22:50	2	BlockProc	SessionList	2	2	2	3	NULL	NULL	NULL	NULL	3	3	25	Scenes	NULL	NULL	NULL	Faces	1	4390	0	216700	10	212410	0	NULL	NULL	scene/s_152.bmp	NULL	NULL	NULL	NULL	NULL	NULL	Repeat	SSFSSSFSFSSFFSFFFSFF	NULL	NULL	NULL	TrialProc	Irrelevant	BlockList	1	1	0	212300	10	211810	1	340	212150
TRSEscan	1141	4	60.002	1	-638018891	8/11/2010	11:22:50	2	BlockProc	SessionList	2	2	2	4	NULL	NULL	NULL	NULL	4	3	26	Faces	NULL	NULL	NULL	Faces	1	6390	0	223700	10	217410	2	NULL	NULL	face/m_013.bmp	NULL	NULL	NULL	NULL	NULL	NULL	Novel	SSFSSSFSFSSFFSFFFSFF	NULL	NULL	NULL	TrialProc	Relevant	BlockList	1	1	0	217300	10	216810	1	604	217414
TRSEscan	1141	4	60.002	1	-638018891	8/11/2010	11:22:50	2	BlockProc	SessionList	2	2	2	5	NULL	NULL	NULL	NULL	5	3	27	Scenes	NULL	NULL	NULL	Faces	1	4390	0	228700	10	224410	1	NULL	NULL	scene/s_152.bmp	NULL	NULL	NULL	NULL	NULL	NULL	Repeat	SSFSSSFSFSSFFSFFFSFF	NULL	NULL	NULL	TrialProc	Irrelevant	BlockList	1	1	0	224300	10	223810	1	420	224230
TRSEscan	1141	4	60.002	1	-638018891	8/11/2010	11:22:50	2	BlockProc	SessionList	2	2	2	6	NULL	NULL	NULL	NULL	6	3	28	Scenes	NULL	NULL	NULL	Faces	1	2390	0	231700	10	229410	0	NULL	NULL	scene/s_443.bmp	NULL	NULL	NULL	NULL	NULL	NULL	Novel	SSFSSSFSFSSFFSFFFSFF	NULL	NULL	NULL	TrialProc	Irrelevant	BlockList	1	1	0	229300	10	228810	1	516	229326
TRSEscan	1141	4	60.002	1	-638018891	8/11/2010	11:22:50	2	BlockProc	SessionList	2	2	2	7	NULL	NULL	NULL	NULL	7	3	29	Scenes	NULL	NULL	NULL	Faces	1	4390	0	236700	10	232410	0	NULL	NULL	scene/s_194.bmp	NULL	NULL	NULL	NULL	NULL	NULL	Novel	SSFSSSFSFSSFFSFFFSFF	NULL	NULL	NULL	TrialProc	Irrelevant	BlockList	1	1	0	232300	10	231810	1	628	232438
TRSEscan	1141	4	60.002	1	-638018891	8/11/2010	11:22:50	2	BlockProc	SessionList	2	2	2	8	NULL	NULL	NULL	NULL	8	3	30	Faces	NULL	NULL	NULL	Faces	2	2390	0	239700	10	237410	3	NULL	NULL	face/m_013.bmp	NULL	NULL	NULL	NULL	NULL	NULL	Repeat	SSFSSSFSFSSFFSFFFSFF	NULL	NULL	NULL	TrialProc	Relevant	BlockList	1	2	0	237300	10	236810	2	483	237293
TRSEscan	1141	4	60.002	1	-638018891	8/11/2010	11:22:50	2	BlockProc	SessionList	2	2	2	9	NULL	NULL	NULL	NULL	9	3	31	Scenes	NULL	NULL	NULL	Faces	1	6390	0	246700	10	240410	1	NULL	NULL	scene/s_194.bmp	NULL	NULL	NULL	NULL	NULL	NULL	Repeat	SSFSSSFSFSSFFSFFFSFF	NULL	NULL	NULL	TrialProc	Irrelevant	BlockList	1	1	0	240300	10	239810	1	395	240205
TRSEscan	1141	4	60.002	1	-638018891	8/11/2010	11:22:50	2	BlockProc	SessionList	2	2	2	10	NULL	NULL	NULL	NULL	10	3	32	Faces	NULL	NULL	NULL	Faces	2	4390	0	251699	10	247409	1	NULL	NULL	face/m_013.bmp	NULL	NULL	NULL	NULL	NULL	NULL	Repeat	SSFSSSFSFSSFFSFFFSFF	NULL	NULL	NULL	TrialProc	Relevant	BlockList	1	2	0	247299	9	246809	2	732	247541
TRSEscan	1141	4	60.002	1	-638018891	8/11/2010	11:22:50	2	BlockProc	SessionList	2	2	2	11	NULL	NULL	NULL	NULL	11	3	33	Scenes	NULL	NULL	NULL	Faces	1	6390	0	258699	10	252409	1	NULL	NULL	scene/s_092.bmp	NULL	NULL	NULL	NULL	NULL	NULL	Novel	SSFSSSFSFSSFFSFFFSFF	NULL	NULL	NULL	TrialProc	Irrelevant	BlockList	1	1	0	252299	10	251809	1	492	252301
TRSEscan	1141	4	60.002	1	-638018891	8/11/2010	11:22:50	2	BlockProc	SessionList	2	2	2	12	NULL	NULL	NULL	NULL	12	3	34	Scenes	NULL	NULL	NULL	Faces	1	2390	0	261699	10	259409	0	NULL	NULL	scene/s_199.bmp	NULL	NULL	NULL	NULL	NULL	NULL	Novel	SSFSSSFSFSSFFSFFFSFF	NULL	NULL	NULL	TrialProc	Irrelevant	BlockList	1	1	0	259299	10	258809	1	516	259325
