ExperimentName	Subject	Session	Display.RefreshRate	Group	RandomSeed	SessionDate	SessionTime	Block	Procedure[Block]	Running[Block]	SessionList	SessionList.Cycle	SessionList.Sample	Trial	BlockInstr.OffsetDelay	BlockInstr.OffsetTime	BlockInstr.OnsetDelay	BlockInstr.OnsetTime	BlockList	BlockList.Cycle	BlockList.Sample	Category	Challenge.ACC	Challenge.RESP	Challenge.RT	Condition	CorrResp	Delay	DelayFixation.OffsetDelay	DelayFixation.OffsetTime	DelayFixation.OnsetDelay	DelayFixation.OnsetTime	Distractors	Feedback.OffsetTime	Feedback.OnsetTime	Filename	GetReady.OffsetTime	GetReady.OnsetDelay	GetReady.OnsetTime	Go.OffsetDelay	Go.OffsetTime	Go.OnsetTime	Novelty	Permutation	PostGoFixation.OffsetDelay	PostGoFixation.OffsetTime	PostGoFixation.OnsetTime	Procedure[Trial]	Relevance	Running[Trial]	Stim.ACC	Stim.CRESP	Stim.OffsetDelay	Stim.OffsetTime	Stim.OnsetDelay	Stim.OnsetTime	Stim.RESP	Stim.RT	Stim.RTTime
TRSEscan	1161	1	60.002	1	-318391307	8/12/2010	18:03:26	1	BlockProc	SessionList	2	1	2	1	-999999	31401	12	28909	1	2	1		1	2	1416	Faces			NULL	NULL	NULL	NULL		NULL	NULL		52505	16	33842	0	53498	52508			0	55398	53508	InstrProc		BlockList	NULL	NULL	NULL	NULL	NULL	NULL	NULL	NULL	NULL
TRSEscan	1161	1	60.002	1	-318391307	8/12/2010	18:03:26	1	BlockProc	SessionList	2	1	2	2	NULL	NULL	NULL	NULL	2	2	2	Scenes	NULL	NULL	NULL	Faces	1	4390	0	60398	10	56108	0	NULL	NULL	scene/s_219.bmp	NULL	NULL	NULL	NULL	NULL	NULL	Novel	SFFSFSSSFSSFSSFFFSFF	NULL	NULL	NULL	TrialProc	Irrelevant	BlockList	1	1	0	55998	10	55508	1	861	56369
TRSEscan	1161	1	60.002	1	-318391307	8/12/2010	18:03:26	1	BlockProc	SessionList	2	1	2	3	NULL	NULL	NULL	NULL	3	2	3	Faces	NULL	NULL	NULL	Faces	1	2390	0	63398	10	61108	1	NULL	NULL	face/m_044.bmp	NULL	NULL	NULL	NULL	NULL	NULL	Novel	SFFSFSSSFSSFSSFFFSFF	NULL	NULL	NULL	TrialProc	Relevant	BlockList	1	1	0	60998	10	60508	1	1044	61552
TRSEscan	1161	1	60.002	1	-318391307	8/12/2010	18:03:26	1	BlockProc	SessionList	2	1	2	4	NULL	NULL	NULL	NULL	4	2	4	Faces	NULL	NULL	NULL	Faces	1	2390	0	66398	10	64108	0	NULL	NULL	face/f_053.bmp	NULL	NULL	NULL	NULL	NULL	NULL	Novel	SFFSFSSSFSSFSSFFFSFF	NULL	NULL	NULL	TrialProc	Relevant	BlockList	0	1	0	63998	10	63508	2	1188	64696
TRSEscan	1161	1	60.002	1	-318391307	8/12/2010	18:03:26	1	BlockProc	SessionList	2	1	2	5	NULL	NULL	NULL	NULL	5	2	5	Scenes	NULL	NULL	NULL	Faces	1	4390	0	71398	10	67108	2	NULL	NULL	scene/s_147.bmp	NULL	NULL	NULL	NULL	NULL	NULL	Novel	SFFSFSSSFSSFSSFFFSFF	NULL	NULL	NULL	TrialProc	Irrelevant	BlockList	1	1	0	66998	10	66508	1	804	67312
TRSEscan	1161	1	60.002	1	-318391307	8/12/2010	18:03:26	1	BlockProc	SessionList	2	1	2	6	NULL	NULL	NULL	NULL	6	2	6	Faces	NULL	NULL	NULL	Faces	2	6390	0	78398	10	72108	1	NULL	NULL	face/f_053.bmp	NULL	NULL	NULL	NULL	NULL	NULL	Repeat	SFFSFSSSFSSFSSFFFSFF	NULL	NULL	NULL	TrialProc	Relevant	BlockList	1	2	0	71998	10	71508	2	1220	72728
TRSEscan	1161	1	60.002	1	-318391307	8/12/2010	18:03:26	1	BlockProc	SessionList	2	1	2	7	NULL	NULL	NULL	NULL	7	2	7	Scenes	NULL	NULL	NULL	Faces	1	6390	0	85397	9	79107	1	NULL	NULL	scene/s_147.bmp	NULL	NULL	NULL	NULL	NULL	NULL	Repeat	SFFSFSSSFSSFSSFFFSFF	NULL	NULL	NULL	TrialProc	Irrelevant	BlockList	1	1	0	78998	10	78508	1	380	78888
TRSEscan	1161	1	60.002	1	-318391307	8/12/2010	18:03:26	1	BlockProc	SessionList	2	1	2	8	NULL	NULL	NULL	NULL	8	2	8	Scenes	NULL	NULL	NULL	Faces	1	4390	0	90397	10	86107	0	NULL	NULL	scene/s_132.bmp	NULL	NULL	NULL	NULL	NULL	NULL	Novel	SFFSFSSSFSSFSSFFFSFF	NULL	NULL	NULL	TrialProc	Irrelevant	BlockList	1	1	0	85997	10	85507	1	653	86160
TRSEscan	1161	1	60.002	1	-318391307	8/12/2010	18:03:26	1	BlockProc	SessionList	2	1	2	9	NULL	NULL	NULL	NULL	9	2	9	Scenes	NULL	NULL	NULL	Faces	1	2390	0	93397	10	91107	0	NULL	NULL	scene/s_132.bmp	NULL	NULL	NULL	NULL	NULL	NULL	Repeat	SFFSFSSSFSSFSSFFFSFF	NULL	NULL	NULL	TrialProc	Irrelevant	BlockList	1	1	0	90997	10	90507	1	613	91120
TRSEscan	1161	1	60.002	1	-318391307	8/12/2010	18:03:26	1	BlockProc	SessionList	2	1	2	10	NULL	NULL	NULL	NULL	10	2	10	Faces	NULL	NULL	NULL	Faces	1	4390	0	98397	10	94107	3	NULL	NULL	face/f_105.bmp	NULL	NULL	NULL	NULL	NULL	NULL	Novel	SFFSFSSSFSSFSSFFFSFF	NULL	NULL	NULL	TrialProc	Relevant	BlockList	1	1	0	93997	10	93507	1	917	94424
TRSEscan	1161	1	60.002	1	-318391307	8/12/2010	18:03:26	1	BlockProc	SessionList	2	1	2	11	NULL	NULL	NULL	NULL	11	2	11	Scenes	NULL	NULL	NULL	Faces	1	6390	0	105397	10	99107	1	NULL	NULL	scene/s_132.bmp	NULL	NULL	NULL	NULL	NULL	NULL	Repeat	SFFSFSSSFSSFSSFFFSFF	NULL	NULL	NULL	TrialProc	Irrelevant	BlockList	1	1	0	98997	10	98507	1	773	99280
TRSEscan	1161	1	60.002	1	-318391307	8/12/2010	18:03:26	1	BlockProc	SessionList	2	1	2	12	NULL	NULL	NULL	NULL	12	2	12	Scenes	NULL	NULL	NULL	Faces	1	2390	0	108397	10	106107	0	NULL	NULL	scene/s_021.bmp	NULL	NULL	NULL	NULL	NULL	NULL	Novel	SFFSFSSSFSSFSSFFFSFF	NULL	NULL	NULL	TrialProc	Irrelevant	BlockList	1	1	0	105997	10	105507	1	612	106119
TRSEscan	1161	1	60.002	1	-318391307	8/12/2010	18:03:26	1	BlockProc	SessionList	2	1	2	13	NULL	NULL	NULL	NULL	13	2	13	Faces	NULL	NULL	NULL	Faces	2	4390	0	113397	10	109107	2	NULL	NULL	face/f_105.bmp	NULL	NULL	NULL	NULL	NULL	NULL	Repeat	SFFSFSSSFSSFSSFFFSFF	NULL	NULL	NULL	TrialProc	Relevant	BlockList	1	2	0	108997	10	108507	2	1044	109551
TRSEscan	1161	1	60.002	1	-318391307	8/12/2010	18:03:26	1	BlockProc	SessionList	2	1	2	14	NULL	NULL	NULL	NULL	14	2	14	Scenes	NULL	NULL	NULL	Faces	1	2390	0	116397	10	114107	1	NULL	NULL	scene/s_021.bmp	NULL	NULL	NULL	NULL	NULL	NULL	Repeat	SFFSFSSSFSSFSSFFFSFF	NULL	NULL	NULL	TrialProc	Irrelevant	BlockList	1	1	0	113997	10	113507	1	404	113911
TRSEscan	1161	1	60.002	1	-318391307	8/12/2010	18:03:26	1	BlockProc	SessionList	2	1	2	15	NULL	NULL	NULL	NULL	15	2	15	Scenes	NULL	NULL	NULL	Faces	1	6390	0	123397	10	117107	0	NULL	NULL	scene/s_076.bmp	NULL	NULL	NULL	NULL	NULL	NULL	Novel	SFFSFSSSFSSFSSFFFSFF	NULL	NULL	NULL	TrialProc	Irrelevant	BlockList	1	1	0	116997	10	116507	1	644	117151
TRSEscan	1161	1	60.002	1	-318391307	8/12/2010	18:03:26	1	BlockProc	SessionList	2	1	2	16	NULL	NULL	NULL	NULL	16	2	16	Faces	NULL	NULL	NULL	Faces	2	6390	0	130396	10	124106	2	NULL	NULL	face/f_105.bmp	NULL	NULL	NULL	NULL	NULL	NULL	Repeat	SFFSFSSSFSSFSSFFFSFF	NULL	NULL	NULL	TrialProc	Relevant	BlockList	1	2	0	123996	9	123506	2	1077	124583
TRSEscan	1161	1	60.002	1	-318391307	8/12/2010	18:03:26	1	BlockProc	SessionList	2	1	2	17	NULL	NULL	NULL	NULL	17	2	17	Faces	NULL	NULL	NULL	Faces	1	2390	0	133396	10	131106	0	NULL	NULL	face/f_026.bmp	NULL	NULL	NULL	NULL	NULL	NULL	Novel	SFFSFSSSFSSFSSFFFSFF	NULL	NULL	NULL	TrialProc	Relevant	BlockList	1	1	0	130996	10	130506	1	693	131199
TRSEscan	1161	1	60.002	1	-318391307	8/12/2010	18:03:26	1	BlockProc	SessionList	2	1	2	18	NULL	NULL	NULL	NULL	18	2	18	Faces	NULL	NULL	NULL	Faces	2	4390	0	138396	10	134106	0	NULL	NULL	face/f_026.bmp	NULL	NULL	NULL	NULL	NULL	NULL	Repeat	SFFSFSSSFSSFSSFFFSFF	NULL	NULL	NULL	TrialProc	Relevant	BlockList	0	2	0	133996	10	133506	1	549	134055
TRSEscan	1161	1	60.002	1	-318391307	8/12/2010	18:03:26	1	BlockProc	SessionList	2	1	2	19	NULL	NULL	NULL	NULL	19	2	19	Scenes	NULL	NULL	NULL	Faces	1	2390	0	141396	10	139106	3	NULL	NULL	scene/s_239.bmp	NULL	NULL	NULL	NULL	NULL	NULL	Novel	SFFSFSSSFSSFSSFFFSFF	NULL	NULL	NULL	TrialProc	Irrelevant	BlockList	1	1	0	138996	10	138506	1	749	139255
TRSEscan	1161	1	60.002	1	-318391307	8/12/2010	18:03:26	1	BlockProc	SessionList	2	1	2	20	NULL	NULL	NULL	NULL	20	2	20	Faces	NULL	NULL	NULL	Faces	1	6390	0	148396	10	142106	1	NULL	NULL	face/m_013.bmp	NULL	NULL	NULL	NULL	NULL	NULL	Novel	SFFSFSSSFSSFSSFFFSFF	NULL	NULL	NULL	TrialProc	Relevant	BlockList	1	1	0	141996	10	141506	1	1148	142654
TRSEscan	1161	1	60.002	1	-318391307	8/12/2010	18:03:26	1	BlockProc	SessionList	2	1	2	21	NULL	NULL	NULL	NULL	21	2	21	Faces	NULL	NULL	NULL	Faces	1	4390	0	153396	10	149106	0	NULL	NULL	face/f_094.bmp	NULL	NULL	NULL	NULL	NULL	NULL	Novel	SFFSFSSSFSSFSSFFFSFF	NULL	NULL	NULL	TrialProc	Relevant	BlockList	1	1	0	148996	10	148506	1	1140	149646
TRSEscan	1161	1	60.002	1	-318391307	8/12/2010	18:03:26	1	BlockProc	SessionList	2	1	2	22	NULL	NULL	NULL	NULL	22	2	22		NULL	NULL	NULL	Faces			NULL	NULL	NULL	NULL		168395	166505		NULL	NULL	NULL	NULL	NULL	NULL			NULL	NULL	NULL	FeedbackProc		BlockList	NULL	NULL	NULL	NULL	NULL	NULL	NULL	NULL	NULL
TRSEscan	1161	1	60.002	1	-318391307	8/12/2010	18:03:26	2	BlockProc	SessionList	2	1	3	1	-999999	172198	10	168505	1	3	23		1	2	1249	Scenes			NULL	NULL	NULL	NULL		NULL	NULL		204061	1	174456	0	205061	204071			0	206961	205071	InstrProc		BlockList	NULL	NULL	NULL	NULL	NULL	NULL	NULL	NULL	NULL
TRSEscan	1161	1	60.002	1	-318391307	8/12/2010	18:03:26	2	BlockProc	SessionList	2	1	3	2	NULL	NULL	NULL	NULL	2	3	24	Scenes	NULL	NULL	NULL	Scenes	1	4390	0	211961	10	207671	0	NULL	NULL	scene/s_359.bmp	NULL	NULL	NULL	NULL	NULL	NULL	Novel	SFFSFSSSFSSFSSFFFSFF	NULL	NULL	NULL	TrialProc	Relevant	BlockList	1	1	0	207561	10	207071	1	766	207837
TRSEscan	1161	1	60.002	1	-318391307	8/12/2010	18:03:26	2	BlockProc	SessionList	2	1	3	3	NULL	NULL	NULL	NULL	3	3	25	Faces	NULL	NULL	NULL	Scenes	1	2390	0	214961	10	212671	1	NULL	NULL	face/f_081.bmp	NULL	NULL	NULL	NULL	NULL	NULL	Novel	SFFSFSSSFSSFSSFFFSFF	NULL	NULL	NULL	TrialProc	Irrelevant	BlockList	1	1	0	212561	10	212071	1	726	212797
TRSEscan	1161	1	60.002	1	-318391307	8/12/2010	18:03:26	2	BlockProc	SessionList	2	1	3	4	NULL	NULL	NULL	NULL	4	3	26	Faces	NULL	NULL	NULL	Scenes	1	2390	0	217961	10	215671	0	NULL	NULL	face/m_070.bmp	NULL	NULL	NULL	NULL	NULL	NULL	Novel	SFFSFSSSFSSFSSFFFSFF	NULL	NULL	NULL	TrialProc	Irrelevant	BlockList	1	1	0	215561	10	215071	1	1190	216261
TRSEscan	1161	1	60.002	1	-318391307	8/12/2010	18:03:26	2	BlockProc	SessionList	2	1	3	5	NULL	NULL	NULL	NULL	5	3	27	Scenes	NULL	NULL	NULL	Scenes	1	4390	0	222961	10	218671	2	NULL	NULL	scene/s_037.bmp	NULL	NULL	NULL	NULL	NULL	NULL	Novel	SFFSFSSSFSSFSSFFFSFF	NULL	NULL	NULL	TrialProc	Relevant	BlockList	1	1	0	218561	10	218071	1	974	219045
TRSEscan	1161	1	60.002	1	-318391307	8/12/2010	18:03:26	2	BlockProc	SessionList	2	1	3	6	NULL	NULL	NULL	NULL	6	3	28	Faces	NULL	NULL	NULL	Scenes	1	6390	0	229961	10	223671	1	NULL	NULL	face/m_070.bmp	NULL	NULL	NULL	NULL	NULL	NULL	Repeat	SFFSFSSSFSSFSSFFFSFF	NULL	NULL	NULL	TrialProc	Irrelevant	BlockList	1	1	0	223561	10	223071	1	717	223788
TRSEscan	1161	1	60.002	1	-318391307	8/12/2010	18:03:26	2	BlockProc	SessionList	2	1	3	7	NULL	NULL	NULL	NULL	7	3	29	Scenes	NULL	NULL	NULL	Scenes	2	6390	0	236960	10	230670	1	NULL	NULL	scene/s_037.bmp	NULL	NULL	NULL	NULL	NULL	NULL	Repeat	SFFSFSSSFSSFSSFFFSFF	NULL	NULL	NULL	TrialProc	Relevant	BlockList	1	2	0	230560	9	230070	2	694	230764
TRSEscan	1161	1	60.002	1	-318391307	8/12/2010	18:03:26	2	BlockProc	SessionList	2	1	3	8	NULL	NULL	NULL	NULL	8	3	30	Scenes	NULL	NULL	NULL	Scenes	1	4390	0	241960	10	237670	0	NULL	NULL	scene/s_119.bmp	NULL	NULL	NULL	NULL	NULL	NULL	Novel	SFFSFSSSFSSFSSFFFSFF	NULL	NULL	NULL	TrialProc	Relevant	BlockList	1	1	0	237560	10	237070	1	934	238004
TRSEscan	1161	1	60.002	1	-318391307	8/12/2010	18:03:26	2	BlockProc	SessionList	2	1	3	9	NULL	NULL	NULL	NULL	9	3	31	Scenes	NULL	NULL	NULL	Scenes	2	2390	0	244960	10	242670	0	NULL	NULL	scene/s_119.bmp	NULL	NULL	NULL	NULL	NULL	NULL	Repeat	SFFSFSSSFSSFSSFFFSFF	NULL	NULL	NULL	TrialProc	Relevant	BlockList	0	2	0	242560	10	242070	1	1342	243412
TRSEscan	1161	1	60.002	1	-318391307	8/12/2010	18:03:26	2	BlockProc	SessionList	2	1	3	10	NULL	NULL	NULL	NULL	10	3	32	Faces	NULL	NULL	NULL	Scenes	1	4390	0	249960	10	245670	3	NULL	NULL	face/m_001.bmp	NULL	NULL	NULL	NULL	NULL	NULL	Novel	SFFSFSSSFSSFSSFFFSFF	NULL	NULL	NULL	TrialProc	Irrelevant	BlockList	1	1	0	245560	10	245070	1	694	245764
TRSEscan	1161	1	60.002	1	-318391307	8/12/2010	18:03:26	2	BlockProc	SessionList	2	1	3	11	NULL	NULL	NULL	NULL	11	3	33	Scenes	NULL	NULL	NULL	Scenes	2	6390	0	256960	10	250670	1	NULL	NULL	scene/s_119.bmp	NULL	NULL	NULL	NULL	NULL	NULL	Repeat	SFFSFSSSFSSFSSFFFSFF	NULL	NULL	NULL	TrialProc	Relevant	BlockList	1	2	0	250560	10	250070	2	854	250924
TRSEscan	1161	1	60.002	1	-318391307	8/12/2010	18:03:26	2	BlockProc	SessionList	2	1	3	12	NULL	NULL	NULL	NULL	12	3	34	Scenes	NULL	NULL	NULL	Scenes	1	2390	0	259960	10	257670	0	NULL	NULL	scene/s_084.bmp	NULL	NULL	NULL	NULL	NULL	NULL	Novel	SFFSFSSSFSSFSSFFFSFF	NULL	NULL	NULL	TrialProc	Relevant	BlockList	1	1	0	257560	10	257070	1	798	257868
TRSEscan	1161	1	60.002	1	-318391307	8/12/2010	18:03:26	2	BlockProc	SessionList	2	1	3	13	NULL	NULL	NULL	NULL	13	3	35	Faces	NULL	NULL	NULL	Scenes	1	4390	0	264960	10	260670	2	NULL	NULL	face/m_001.bmp	NULL	NULL	NULL	NULL	NULL	NULL	Repeat	SFFSFSSSFSSFSSFFFSFF	NULL	NULL	NULL	TrialProc	Irrelevant	BlockList	1	1	0	260560	10	260070	1	733	260803
TRSEscan	1161	1	60.002	1	-318391307	8/12/2010	18:03:26	2	BlockProc	SessionList	2	1	3	14	NULL	NULL	NULL	NULL	14	3	36	Scenes	NULL	NULL	NULL	Scenes	2	2390	0	267960	10	265670	1	NULL	NULL	scene/s_084.bmp	NULL	NULL	NULL	NULL	NULL	NULL	Repeat	SFFSFSSSFSSFSSFFFSFF	NULL	NULL	NULL	TrialProc	Relevant	BlockList	1	2	0	265560	10	265070	2	917	265987
TRSEscan	1161	1	60.002	1	-318391307	8/12/2010	18:03:26	2	BlockProc	SessionList	2	1	3	15	NULL	NULL	NULL	NULL	15	3	37	Scenes	NULL	NULL	NULL	Scenes	1	6390	0	274959	10	268669	0	NULL	NULL	scene/s_342.bmp	NULL	NULL	NULL	NULL	NULL	NULL	Novel	SFFSFSSSFSSFSSFFFSFF	NULL	NULL	NULL	TrialProc	Relevant	BlockList	1	1	0	268559	9	268069	1	622	268691
TRSEscan	1161	1	60.002	1	-318391307	8/12/2010	18:03:26	2	BlockProc	SessionList	2	1	3	16	NULL	NULL	NULL	NULL	16	3	38	Faces	NULL	NULL	NULL	Scenes	1	6390	0	281959	10	275669	2	NULL	NULL	face/m_001.bmp	NULL	NULL	NULL	NULL	NULL	NULL	Repeat	SFFSFSSSFSSFSSFFFSFF	NULL	NULL	NULL	TrialProc	Irrelevant	BlockList	1	1	0	275559	10	275069	1	678	275747
TRSEscan	1161	1	60.002	1	-318391307	8/12/2010	18:03:26	2	BlockProc	SessionList	2	1	3	17	NULL	NULL	NULL	NULL	17	3	39	Faces	NULL	NULL	NULL	Scenes	1	2390	0	284959	10	282669	0	NULL	NULL	face/f_033.bmp	NULL	NULL	NULL	NULL	NULL	NULL	Novel	SFFSFSSSFSSFSSFFFSFF	NULL	NULL	NULL	TrialProc	Irrelevant	BlockList	1	1	0	282559	10	282069	1	718	282787
TRSEscan	1161	1	60.002	1	-318391307	8/12/2010	18:03:26	2	BlockProc	SessionList	2	1	3	18	NULL	NULL	NULL	NULL	18	3	40	Faces	NULL	NULL	NULL	Scenes	1	4390	0	289959	10	285669	0	NULL	NULL	face/f_033.bmp	NULL	NULL	NULL	NULL	NULL	NULL	Repeat	SFFSFSSSFSSFSSFFFSFF	NULL	NULL	NULL	TrialProc	Irrelevant	BlockList	1	1	0	285559	10	285069	1	726	285795
TRSEscan	1161	1	60.002	1	-318391307	8/12/2010	18:03:26	2	BlockProc	SessionList	2	1	3	19	NULL	NULL	NULL	NULL	19	3	41	Scenes	NULL	NULL	NULL	Scenes	1	2390	0	292959	10	290669	3	NULL	NULL	scene/s_437.bmp	NULL	NULL	NULL	NULL	NULL	NULL	Novel	SFFSFSSSFSSFSSFFFSFF	NULL	NULL	NULL	TrialProc	Relevant	BlockList	1	1	0	290559	10	290069	1	1094	291163
TRSEscan	1161	1	60.002	1	-318391307	8/12/2010	18:03:26	2	BlockProc	SessionList	2	1	3	20	NULL	NULL	NULL	NULL	20	3	42	Faces	NULL	NULL	NULL	Scenes	1	6390	0	299959	10	293669	1	NULL	NULL	face/m_029.bmp	NULL	NULL	NULL	NULL	NULL	NULL	Novel	SFFSFSSSFSSFSSFFFSFF	NULL	NULL	NULL	TrialProc	Irrelevant	BlockList	1	1	0	293559	10	293069	1	670	293739
TRSEscan	1161	1	60.002	1	-318391307	8/12/2010	18:03:26	2	BlockProc	SessionList	2	1	3	21	NULL	NULL	NULL	NULL	21	3	43	Faces	NULL	NULL	NULL	Scenes	1	4390	0	304959	10	300669	0	NULL	NULL	face/f_069.bmp	NULL	NULL	NULL	NULL	NULL	NULL	Novel	SFFSFSSSFSSFSSFFFSFF	NULL	NULL	NULL	TrialProc	Irrelevant	BlockList	1	1	0	300559	10	300069	1	741	300810
TRSEscan	1161	1	60.002	1	-318391307	8/12/2010	18:03:26	2	BlockProc	SessionList	2	1	3	22	NULL	NULL	NULL	NULL	22	3	44		NULL	NULL	NULL	Scenes			NULL	NULL	NULL	NULL		319958	318068		NULL	NULL	NULL	NULL	NULL	NULL			NULL	NULL	NULL	FeedbackProc		BlockList	NULL	NULL	NULL	NULL	NULL	NULL	NULL	NULL	NULL
TRSEscan	1161	1	60.002	1	-318391307	8/12/2010	18:03:26	3	BlockProc	SessionList	2	1	4	1	-999999	325170	10	320068	1	4	45		1	2	1617	Categorize			NULL	NULL	NULL	NULL		NULL	NULL		338562	1	327803	0	339558	338568			0	341458	339568	InstrProc		BlockList	NULL	NULL	NULL	NULL	NULL	NULL	NULL	NULL	NULL
TRSEscan	1161	1	60.002	1	-318391307	8/12/2010	18:03:26	3	BlockProc	SessionList	2	1	4	2	NULL	NULL	NULL	NULL	2	4	46	Scenes	NULL	NULL	NULL	Categorize	2	4390	0	346458	10	342168	0	NULL	NULL	scene/s_010.bmp	NULL	NULL	NULL	NULL	NULL	NULL	Novel	SFFSFSSSFSSFSSFFFSFF	NULL	NULL	NULL	TrialProc	Irrelevant	BlockList	1	2	0	342058	10	341568	2	497	342065
TRSEscan	1161	1	60.002	1	-318391307	8/12/2010	18:03:26	3	BlockProc	SessionList	2	1	4	3	NULL	NULL	NULL	NULL	3	4	47	Faces	NULL	NULL	NULL	Categorize	1	2390	0	349457	9	347167	1	NULL	NULL	face/f_102.bmp	NULL	NULL	NULL	NULL	NULL	NULL	Novel	SFFSFSSSFSSFSSFFFSFF	NULL	NULL	NULL	TrialProc	Irrelevant	BlockList	1	1	0	347058	10	346568	1	745	347313
TRSEscan	1161	1	60.002	1	-318391307	8/12/2010	18:03:26	3	BlockProc	SessionList	2	1	4	4	NULL	NULL	NULL	NULL	4	4	48	Faces	NULL	NULL	NULL	Categorize	1	2390	0	352457	10	350167	0	NULL	NULL	face/m_065.bmp	NULL	NULL	NULL	NULL	NULL	NULL	Novel	SFFSFSSSFSSFSSFFFSFF	NULL	NULL	NULL	TrialProc	Irrelevant	BlockList	1	1	0	350057	10	349567	1	602	350169
TRSEscan	1161	1	60.002	1	-318391307	8/12/2010	18:03:26	3	BlockProc	SessionList	2	1	4	5	NULL	NULL	NULL	NULL	5	4	49	Scenes	NULL	NULL	NULL	Categorize	2	4390	0	357457	10	353167	2	NULL	NULL	scene/s_353.bmp	NULL	NULL	NULL	NULL	NULL	NULL	Novel	SFFSFSSSFSSFSSFFFSFF	NULL	NULL	NULL	TrialProc	Irrelevant	BlockList	1	2	0	353057	10	352567	2	594	353161
TRSEscan	1161	1	60.002	1	-318391307	8/12/2010	18:03:26	3	BlockProc	SessionList	2	1	4	6	NULL	NULL	NULL	NULL	6	4	50	Faces	NULL	NULL	NULL	Categorize	1	6390	0	364457	10	358167	1	NULL	NULL	face/m_065.bmp	NULL	NULL	NULL	NULL	NULL	NULL	Repeat	SFFSFSSSFSSFSSFFFSFF	NULL	NULL	NULL	TrialProc	Irrelevant	BlockList	1	1	0	358057	10	357567	1	346	357913
TRSEscan	1161	1	60.002	1	-318391307	8/12/2010	18:03:26	3	BlockProc	SessionList	2	1	4	7	NULL	NULL	NULL	NULL	7	4	51	Scenes	NULL	NULL	NULL	Categorize	2	6390	0	371457	10	365167	1	NULL	NULL	scene/s_353.bmp	NULL	NULL	NULL	NULL	NULL	NULL	Repeat	SFFSFSSSFSSFSSFFFSFF	NULL	NULL	NULL	TrialProc	Irrelevant	BlockList	1	2	0	365057	10	364567	2	738	365305
TRSEscan	1161	1	60.002	1	-318391307	8/12/2010	18:03:26	3	BlockProc	SessionList	2	1	4	8	NULL	NULL	NULL	NULL	8	4	52	Scenes	NULL	NULL	NULL	Categorize	2	4390	0	376457	10	372167	0	NULL	NULL	scene/s_419.bmp	NULL	NULL	NULL	NULL	NULL	NULL	Novel	SFFSFSSSFSSFSSFFFSFF	NULL	NULL	NULL	TrialProc	Irrelevant	BlockList	1	2	0	372057	10	371567	2	618	372185
TRSEscan	1161	1	60.002	1	-318391307	8/12/2010	18:03:26	3	BlockProc	SessionList	2	1	4	9	NULL	NULL	NULL	NULL	9	4	53	Scenes	NULL	NULL	NULL	Categorize	2	2390	0	379457	10	377167	0	NULL	NULL	scene/s_419.bmp	NULL	NULL	NULL	NULL	NULL	NULL	Repeat	SFFSFSSSFSSFSSFFFSFF	NULL	NULL	NULL	TrialProc	Irrelevant	BlockList	1	2	0	377057	10	376567	2	1026	377593
TRSEscan	1161	1	60.002	1	-318391307	8/12/2010	18:03:26	3	BlockProc	SessionList	2	1	4	10	NULL	NULL	NULL	NULL	10	4	54	Faces	NULL	NULL	NULL	Categorize	1	4390	0	384457	10	380167	3	NULL	NULL	face/f_147.bmp	NULL	NULL	NULL	NULL	NULL	NULL	Novel	SFFSFSSSFSSFSSFFFSFF	NULL	NULL	NULL	TrialProc	Irrelevant	BlockList	1	1	0	380057	10	379567	1	498	380065
TRSEscan	1161	1	60.002	1	-318391307	8/12/2010	18:03:26	3	BlockProc	SessionList	2	1	4	11	NULL	NULL	NULL	NULL	11	4	55	Scenes	NULL	NULL	NULL	Categorize	2	6390	0	391457	10	385167	1	NULL	NULL	scene/s_419.bmp	NULL	NULL	NULL	NULL	NULL	NULL	Repeat	SFFSFSSSFSSFSSFFFSFF	NULL	NULL	NULL	TrialProc	Irrelevant	BlockList	0	2	0	385057	10	384567	1	473	385040
TRSEscan	1161	1	60.002	1	-318391307	8/12/2010	18:03:26	3	BlockProc	SessionList	2	1	4	12	NULL	NULL	NULL	NULL	12	4	56	Scenes	NULL	NULL	NULL	Categorize	2	2390	0	394456	10	392166	0	NULL	NULL	scene/s_286.bmp	NULL	NULL	NULL	NULL	NULL	NULL	Novel	SFFSFSSSFSSFSSFFFSFF	NULL	NULL	NULL	TrialProc	Irrelevant	BlockList	1	2	0	392056	9	391566	2	578	392144
TRSEscan	1161	1	60.002	1	-318391307	8/12/2010	18:03:26	3	BlockProc	SessionList	2	1	4	13	NULL	NULL	NULL	NULL	13	4	57	Faces	NULL	NULL	NULL	Categorize	1	4390	0	399456	10	395166	2	NULL	NULL	face/f_147.bmp	NULL	NULL	NULL	NULL	NULL	NULL	Repeat	SFFSFSSSFSSFSSFFFSFF	NULL	NULL	NULL	TrialProc	Irrelevant	BlockList	1	1	0	395056	10	394566	1	562	395128
TRSEscan	1161	1	60.002	1	-318391307	8/12/2010	18:03:26	3	BlockProc	SessionList	2	1	4	14	NULL	NULL	NULL	NULL	14	4	58	Scenes	NULL	NULL	NULL	Categorize	2	2390	0	402456	10	400166	1	NULL	NULL	scene/s_286.bmp	NULL	NULL	NULL	NULL	NULL	NULL	Repeat	SFFSFSSSFSSFSSFFFSFF	NULL	NULL	NULL	TrialProc	Irrelevant	BlockList	1	2	0	400056	10	399566	2	962	400528
TRSEscan	1161	1	60.002	1	-318391307	8/12/2010	18:03:26	3	BlockProc	SessionList	2	1	4	15	NULL	NULL	NULL	NULL	15	4	59	Scenes	NULL	NULL	NULL	Categorize	2	6390	0	409456	10	403166	0	NULL	NULL	scene/s_283.bmp	NULL	NULL	NULL	NULL	NULL	NULL	Novel	SFFSFSSSFSSFSSFFFSFF	NULL	NULL	NULL	TrialProc	Irrelevant	BlockList	1	2	0	403056	10	402566	2	530	403096
TRSEscan	1161	1	60.002	1	-318391307	8/12/2010	18:03:26	3	BlockProc	SessionList	2	1	4	16	NULL	NULL	NULL	NULL	16	4	60	Faces	NULL	NULL	NULL	Categorize	1	6390	0	416456	10	410166	2	NULL	NULL	face/f_147.bmp	NULL	NULL	NULL	NULL	NULL	NULL	Repeat	SFFSFSSSFSSFSSFFFSFF	NULL	NULL	NULL	TrialProc	Irrelevant	BlockList	0	1	0	410056	10	409566		0	0
TRSEscan	1161	1	60.002	1	-318391307	8/12/2010	18:03:26	3	BlockProc	SessionList	2	1	4	17	NULL	NULL	NULL	NULL	17	4	61	Faces	NULL	NULL	NULL	Categorize	1	2390	0	419456	10	417166	0	NULL	NULL	face/f_134.bmp	NULL	NULL	NULL	NULL	NULL	NULL	Novel	SFFSFSSSFSSFSSFFFSFF	NULL	NULL	NULL	TrialProc	Irrelevant	BlockList	1	1	0	417056	10	416566	1	586	417152
TRSEscan	1161	1	60.002	1	-318391307	8/12/2010	18:03:26	3	BlockProc	SessionList	2	1	4	18	NULL	NULL	NULL	NULL	18	4	62	Faces	NULL	NULL	NULL	Categorize	1	4390	0	424456	10	420166	0	NULL	NULL	face/f_134.bmp	NULL	NULL	NULL	NULL	NULL	NULL	Repeat	SFFSFSSSFSSFSSFFFSFF	NULL	NULL	NULL	TrialProc	Irrelevant	BlockList	1	1	0	420056	10	419566	1	858	420424
TRSEscan	1161	1	60.002	1	-318391307	8/12/2010	18:03:26	3	BlockProc	SessionList	2	1	4	19	NULL	NULL	NULL	NULL	19	4	63	Scenes	NULL	NULL	NULL	Categorize	2	2390	0	427456	10	425166	3	NULL	NULL	scene/s_218.bmp	NULL	NULL	NULL	NULL	NULL	NULL	Novel	SFFSFSSSFSSFSSFFFSFF	NULL	NULL	NULL	TrialProc	Irrelevant	BlockList	0	2	0	425056	10	424566	1	369	424935
TRSEscan	1161	1	60.002	1	-318391307	8/12/2010	18:03:26	3	BlockProc	SessionList	2	1	4	20	NULL	NULL	NULL	NULL	20	4	64	Faces	NULL	NULL	NULL	Categorize	1	6390	0	434455	10	428165	1	NULL	NULL	face/f_001.bmp	NULL	NULL	NULL	NULL	NULL	NULL	Novel	SFFSFSSSFSSFSSFFFSFF	NULL	NULL	NULL	TrialProc	Irrelevant	BlockList	1	1	0	428055	9	427565	1	666	428231
TRSEscan	1161	1	60.002	1	-318391307	8/12/2010	18:03:26	3	BlockProc	SessionList	2	1	4	21	NULL	NULL	NULL	NULL	21	4	65	Faces	NULL	NULL	NULL	Categorize	1	4390	0	439455	10	435165	0	NULL	NULL	face/m_144.bmp	NULL	NULL	NULL	NULL	NULL	NULL	Novel	SFFSFSSSFSSFSSFFFSFF	NULL	NULL	NULL	TrialProc	Irrelevant	BlockList	1	1	0	435055	10	434565	1	490	435055
TRSEscan	1161	1	60.002	1	-318391307	8/12/2010	18:03:26	3	BlockProc	SessionList	2	1	4	22	NULL	NULL	NULL	NULL	22	4	66		NULL	NULL	NULL	Categorize			NULL	NULL	NULL	NULL		454455	452565		NULL	NULL	NULL	NULL	NULL	NULL			NULL	NULL	NULL	FeedbackProc		BlockList	NULL	NULL	NULL	NULL	NULL	NULL	NULL	NULL	NULL
TRSEscan	1161	1	60.002	1	-318391307	8/12/2010	18:03:26	4	BlockProc	SessionList	2	1	5	1	-999999	461111	10	454565	1	5	67		1	2	1131	Both			NULL	NULL	NULL	NULL		NULL	NULL		473238	1	463249	0	474238	473248			0	476138	474248	InstrProc		BlockList	NULL	NULL	NULL	NULL	NULL	NULL	NULL	NULL	NULL
TRSEscan	1161	1	60.002	1	-318391307	8/12/2010	18:03:26	4	BlockProc	SessionList	2	1	5	2	NULL	NULL	NULL	NULL	2	5	68	Scenes	NULL	NULL	NULL	Both	1	4390	0	481138	10	476848	0	NULL	NULL	scene/s_315.bmp	NULL	NULL	NULL	NULL	NULL	NULL	Novel	SFFSFSSSFSSFSSFFFSFF	NULL	NULL	NULL	TrialProc	Relevant	BlockList	0	1	0	476738	10	476248	2	1670	477918
TRSEscan	1161	1	60.002	1	-318391307	8/12/2010	18:03:26	4	BlockProc	SessionList	2	1	5	3	NULL	NULL	NULL	NULL	3	5	69	Faces	NULL	NULL	NULL	Both	1	2390	0	484137	10	481847	1	NULL	NULL	face/f_111.bmp	NULL	NULL	NULL	NULL	NULL	NULL	Novel	SFFSFSSSFSSFSSFFFSFF	NULL	NULL	NULL	TrialProc	Relevant	BlockList	1	1	0	481737	9	481247	1	1199	482446
TRSEscan	1161	1	60.002	1	-318391307	8/12/2010	18:03:26	4	BlockProc	SessionList	2	1	5	4	NULL	NULL	NULL	NULL	4	5	70	Faces	NULL	NULL	NULL	Both	1	2390	0	487137	10	484847	0	NULL	NULL	face/f_032.bmp	NULL	NULL	NULL	NULL	NULL	NULL	Novel	SFFSFSSSFSSFSSFFFSFF	NULL	NULL	NULL	TrialProc	Relevant	BlockList	1	1	0	484737	10	484247	1	1191	485438
TRSEscan	1161	1	60.002	1	-318391307	8/12/2010	18:03:26	4	BlockProc	SessionList	2	1	5	5	NULL	NULL	NULL	NULL	5	5	71	Scenes	NULL	NULL	NULL	Both	1	4390	0	492137	10	487847	2	NULL	NULL	scene/s_337.bmp	NULL	NULL	NULL	NULL	NULL	NULL	Novel	SFFSFSSSFSSFSSFFFSFF	NULL	NULL	NULL	TrialProc	Relevant	BlockList	1	1	0	487737	10	487247	1	943	488190
TRSEscan	1161	1	60.002	1	-318391307	8/12/2010	18:03:26	4	BlockProc	SessionList	2	1	5	6	NULL	NULL	NULL	NULL	6	5	72	Faces	NULL	NULL	NULL	Both	2	6390	0	499137	10	492847	1	NULL	NULL	face/f_032.bmp	NULL	NULL	NULL	NULL	NULL	NULL	Repeat	SFFSFSSSFSSFSSFFFSFF	NULL	NULL	NULL	TrialProc	Relevant	BlockList	1	2	0	492737	10	492247	2	1079	493326
TRSEscan	1161	1	60.002	1	-318391307	8/12/2010	18:03:26	4	BlockProc	SessionList	2	1	5	7	NULL	NULL	NULL	NULL	7	5	73	Scenes	NULL	NULL	NULL	Both	2	6390	0	506137	10	499847	1	NULL	NULL	scene/s_337.bmp	NULL	NULL	NULL	NULL	NULL	NULL	Repeat	SFFSFSSSFSSFSSFFFSFF	NULL	NULL	NULL	TrialProc	Relevant	BlockList	1	2	0	499737	10	499247	2	1134	500381
TRSEscan	1161	1	60.002	1	-318391307	8/12/2010	18:03:26	4	BlockProc	SessionList	2	1	5	8	NULL	NULL	NULL	NULL	8	5	74	Scenes	NULL	NULL	NULL	Both	1	4390	0	511137	10	506847	0	NULL	NULL	scene/s_157.bmp	NULL	NULL	NULL	NULL	NULL	NULL	Novel	SFFSFSSSFSSFSSFFFSFF	NULL	NULL	NULL	TrialProc	Relevant	BlockList	1	1	0	506737	10	506247	1	1446	507693
TRSEscan	1161	1	60.002	1	-318391307	8/12/2010	18:03:26	4	BlockProc	SessionList	2	1	5	9	NULL	NULL	NULL	NULL	9	5	75	Scenes	NULL	NULL	NULL	Both	2	2390	0	514137	10	511847	0	NULL	NULL	scene/s_157.bmp	NULL	NULL	NULL	NULL	NULL	NULL	Repeat	SFFSFSSSFSSFSSFFFSFF	NULL	NULL	NULL	TrialProc	Relevant	BlockList	0	2	0	511737	10	511247	1	1006	512253
TRSEscan	1161	1	60.002	1	-318391307	8/12/2010	18:03:26	4	BlockProc	SessionList	2	1	5	10	NULL	NULL	NULL	NULL	10	5	76	Faces	NULL	NULL	NULL	Both	1	4390	0	519137	10	514847	3	NULL	NULL	face/f_049.bmp	NULL	NULL	NULL	NULL	NULL	NULL	Novel	SFFSFSSSFSSFSSFFFSFF	NULL	NULL	NULL	TrialProc	Relevant	BlockList	1	1	0	514737	10	514247	1	1950	516197
TRSEscan	1161	1	60.002	1	-318391307	8/12/2010	18:03:26	4	BlockProc	SessionList	2	1	5	11	NULL	NULL	NULL	NULL	11	5	77	Scenes	NULL	NULL	NULL	Both	2	6390	0	526137	10	519847	1	NULL	NULL	scene/s_157.bmp	NULL	NULL	NULL	NULL	NULL	NULL	Repeat	SFFSFSSSFSSFSSFFFSFF	NULL	NULL	NULL	TrialProc	Relevant	BlockList	1	2	0	519737	10	519247	2	1326	520573
TRSEscan	1161	1	60.002	1	-318391307	8/12/2010	18:03:26	4	BlockProc	SessionList	2	1	5	12	NULL	NULL	NULL	NULL	12	5	78	Scenes	NULL	NULL	NULL	Both	1	2390	0	529136	10	526846	0	NULL	NULL	scene/s_072.bmp	NULL	NULL	NULL	NULL	NULL	NULL	Novel	SFFSFSSSFSSFSSFFFSFF	NULL	NULL	NULL	TrialProc	Relevant	BlockList	1	1	0	526736	9	526246	1	1279	527525
TRSEscan	1161	1	60.002	1	-318391307	8/12/2010	18:03:26	4	BlockProc	SessionList	2	1	5	13	NULL	NULL	NULL	NULL	13	5	79	Faces	NULL	NULL	NULL	Both	2	4390	0	534136	10	529846	2	NULL	NULL	face/f_049.bmp	NULL	NULL	NULL	NULL	NULL	NULL	Repeat	SFFSFSSSFSSFSSFFFSFF	NULL	NULL	NULL	TrialProc	Relevant	BlockList	1	2	0	529736	10	529246	2	1295	530541
TRSEscan	1161	1	60.002	1	-318391307	8/12/2010	18:03:26	4	BlockProc	SessionList	2	1	5	14	NULL	NULL	NULL	NULL	14	5	80	Scenes	NULL	NULL	NULL	Both	2	2390	0	537136	10	534846	1	NULL	NULL	scene/s_072.bmp	NULL	NULL	NULL	NULL	NULL	NULL	Repeat	SFFSFSSSFSSFSSFFFSFF	NULL	NULL	NULL	TrialProc	Relevant	BlockList	1	2	0	534736	10	534246	2	1111	535357
TRSEscan	1161	1	60.002	1	-318391307	8/12/2010	18:03:26	4	BlockProc	SessionList	2	1	5	15	NULL	NULL	NULL	NULL	15	5	81	Scenes	NULL	NULL	NULL	Both	1	6390	0	544136	10	537846	0	NULL	NULL	scene/s_135.bmp	NULL	NULL	NULL	NULL	NULL	NULL	Novel	SFFSFSSSFSSFSSFFFSFF	NULL	NULL	NULL	TrialProc	Relevant	BlockList	1	1	0	537736	10	537246	1	879	538125
TRSEscan	1161	1	60.002	1	-318391307	8/12/2010	18:03:26	4	BlockProc	SessionList	2	1	5	16	NULL	NULL	NULL	NULL	16	5	82	Faces	NULL	NULL	NULL	Both	2	6390	0	551136	10	544846	2	NULL	NULL	face/f_049.bmp	NULL	NULL	NULL	NULL	NULL	NULL	Repeat	SFFSFSSSFSSFSSFFFSFF	NULL	NULL	NULL	TrialProc	Relevant	BlockList	1	2	0	544736	10	544246	2	1622	545868
TRSEscan	1161	1	60.002	1	-318391307	8/12/2010	18:03:26	4	BlockProc	SessionList	2	1	5	17	NULL	NULL	NULL	NULL	17	5	83	Faces	NULL	NULL	NULL	Both	1	2390	0	554136	10	551846	0	NULL	NULL	face/m_146.bmp	NULL	NULL	NULL	NULL	NULL	NULL	Novel	SFFSFSSSFSSFSSFFFSFF	NULL	NULL	NULL	TrialProc	Relevant	BlockList	1	1	0	551736	10	551246	1	862	552108
TRSEscan	1161	1	60.002	1	-318391307	8/12/2010	18:03:26	4	BlockProc	SessionList	2	1	5	18	NULL	NULL	NULL	NULL	18	5	84	Faces	NULL	NULL	NULL	Both	2	4390	0	559136	10	554846	0	NULL	NULL	face/m_146.bmp	NULL	NULL	NULL	NULL	NULL	NULL	Repeat	SFFSFSSSFSSFSSFFFSFF	NULL	NULL	NULL	TrialProc	Relevant	BlockList	1	2	0	554736	10	554246	2	806	555052
TRSEscan	1161	1	60.002	1	-318391307	8/12/2010	18:03:26	4	BlockProc	SessionList	2	1	5	19	NULL	NULL	NULL	NULL	19	5	85	Scenes	NULL	NULL	NULL	Both	1	2390	0	562136	10	559846	3	NULL	NULL	scene/s_375.bmp	NULL	NULL	NULL	NULL	NULL	NULL	Novel	SFFSFSSSFSSFSSFFFSFF	NULL	NULL	NULL	TrialProc	Relevant	BlockList	1	1	0	559736	10	559246	1	1166	560412
TRSEscan	1161	1	60.002	1	-318391307	8/12/2010	18:03:26	4	BlockProc	SessionList	2	1	5	20	NULL	NULL	NULL	NULL	20	5	86	Faces	NULL	NULL	NULL	Both	1	6390	0	569135	10	562845	1	NULL	NULL	face/f_030.bmp	NULL	NULL	NULL	NULL	NULL	NULL	Novel	SFFSFSSSFSSFSSFFFSFF	NULL	NULL	NULL	TrialProc	Relevant	BlockList	1	1	0	562735	9	562245	1	983	563228
TRSEscan	1161	1	60.002	1	-318391307	8/12/2010	18:03:26	4	BlockProc	SessionList	2	1	5	21	NULL	NULL	NULL	NULL	21	5	87	Faces	NULL	NULL	NULL	Both	1	4390	0	574135	10	569845	0	NULL	NULL	face/m_117.bmp	NULL	NULL	NULL	NULL	NULL	NULL	Novel	SFFSFSSSFSSFSSFFFSFF	NULL	NULL	NULL	TrialProc	Relevant	BlockList	1	1	0	569735	10	569245	1	911	570156
TRSEscan	1161	1	60.002	1	-318391307	8/12/2010	18:03:26	4	BlockProc	SessionList	2	1	5	22	NULL	NULL	NULL	NULL	22	5	88		NULL	NULL	NULL	Both			NULL	NULL	NULL	NULL		589135	587245		NULL	NULL	NULL	NULL	NULL	NULL			NULL	NULL	NULL	FeedbackProc		BlockList	NULL	NULL	NULL	NULL	NULL	NULL	NULL	NULL	NULL
TRSEscan	1161	2	60.002	1	2132635365	8/12/2010	18:14:03	1	BlockProc	SessionList	2	2	1	1	-999999	48356	14	45629	1	2	1		1	2	1569	Scenes			NULL	NULL	NULL	NULL		NULL	NULL		64628	1	50947	0	65619	64629			0	67519	65629	InstrProc		BlockList	NULL	NULL	NULL	NULL	NULL	NULL	NULL	NULL	NULL
TRSEscan	1161	2	60.002	1	2132635365	8/12/2010	18:14:03	1	BlockProc	SessionList	2	2	1	2	NULL	NULL	NULL	NULL	2	2	2	Faces	NULL	NULL	NULL	Scenes	1	2390	0	70519	10	68229	0	NULL	NULL	face/m_035.bmp	NULL	NULL	NULL	NULL	NULL	NULL	Novel	FFSFFFSSFSSFSSSFSFFS	NULL	NULL	NULL	TrialProc	Irrelevant	BlockList	1	1	0	68119	10	67629	1	486	68115
TRSEscan	1161	2	60.002	1	2132635365	8/12/2010	18:14:03	1	BlockProc	SessionList	2	2	1	3	NULL	NULL	NULL	NULL	3	2	3	Faces	NULL	NULL	NULL	Scenes	1	4390	0	75519	10	71229	0	NULL	NULL	face/f_051.bmp	NULL	NULL	NULL	NULL	NULL	NULL	Novel	FFSFFFSSFSSFSSSFSFFS	NULL	NULL	NULL	TrialProc	Irrelevant	BlockList	1	1	0	71119	10	70629	1	622	71251
TRSEscan	1161	2	60.002	1	2132635365	8/12/2010	18:14:03	1	BlockProc	SessionList	2	2	1	4	NULL	NULL	NULL	NULL	4	2	4	Scenes	NULL	NULL	NULL	Scenes	1	6390	0	82519	10	76229	2	NULL	NULL	scene/s_364.bmp	NULL	NULL	NULL	NULL	NULL	NULL	Novel	FFSFFFSSFSSFSSSFSFFS	NULL	NULL	NULL	TrialProc	Relevant	BlockList	1	1	0	76119	10	75629	1	534	76163
TRSEscan	1161	2	60.002	1	2132635365	8/12/2010	18:14:03	1	BlockProc	SessionList	2	2	1	5	NULL	NULL	NULL	NULL	5	2	5	Faces	NULL	NULL	NULL	Scenes	1	4390	0	87518	10	83228	1	NULL	NULL	face/f_051.bmp	NULL	NULL	NULL	NULL	NULL	NULL	Repeat	FFSFFFSSFSSFSSSFSFFS	NULL	NULL	NULL	TrialProc	Irrelevant	BlockList	0	1	0	83118	9	82628	2	1463	84091
TRSEscan	1161	2	60.002	1	2132635365	8/12/2010	18:14:03	1	BlockProc	SessionList	2	2	1	6	NULL	NULL	NULL	NULL	6	2	6	Faces	NULL	NULL	NULL	Scenes	1	2390	0	90518	10	88228	0	NULL	NULL	face/f_051.bmp	NULL	NULL	NULL	NULL	NULL	NULL	Repeat	FFSFFFSSFSSFSSSFSFFS	NULL	NULL	NULL	TrialProc	Irrelevant	BlockList	0	1	0	88118	10	87628	2	775	88403
TRSEscan	1161	2	60.002	1	2132635365	8/12/2010	18:14:03	1	BlockProc	SessionList	2	2	1	7	NULL	NULL	NULL	NULL	7	2	7	Faces	NULL	NULL	NULL	Scenes	1	6390	0	97518	10	91228	0	NULL	NULL	face/m_014.bmp	NULL	NULL	NULL	NULL	NULL	NULL	Novel	FFSFFFSSFSSFSSSFSFFS	NULL	NULL	NULL	TrialProc	Irrelevant	BlockList	1	1	0	91118	10	90628	1	807	91435
TRSEscan	1161	2	60.002	1	2132635365	8/12/2010	18:14:03	1	BlockProc	SessionList	2	2	1	8	NULL	NULL	NULL	NULL	8	2	8	Scenes	NULL	NULL	NULL	Scenes	1	2390	0	100518	10	98228	3	NULL	NULL	scene/s_258.bmp	NULL	NULL	NULL	NULL	NULL	NULL	Novel	FFSFFFSSFSSFSSSFSFFS	NULL	NULL	NULL	TrialProc	Relevant	BlockList	1	1	0	98118	10	97628	1	607	98235
TRSEscan	1161	2	60.002	1	2132635365	8/12/2010	18:14:03	1	BlockProc	SessionList	2	2	1	9	NULL	NULL	NULL	NULL	9	2	9	Scenes	NULL	NULL	NULL	Scenes	2	4390	0	105518	10	101228	0	NULL	NULL	scene/s_258.bmp	NULL	NULL	NULL	NULL	NULL	NULL	Repeat	FFSFFFSSFSSFSSSFSFFS	NULL	NULL	NULL	TrialProc	Relevant	BlockList	0	2	0	101118	10	100628	1	351	100979
TRSEscan	1161	2	60.002	1	2132635365	8/12/2010	18:14:03	1	BlockProc	SessionList	2	2	1	10	NULL	NULL	NULL	NULL	10	2	10	Faces	NULL	NULL	NULL	Scenes	1	2390	0	108518	10	106228	2	NULL	NULL	face/m_014.bmp	NULL	NULL	NULL	NULL	NULL	NULL	Repeat	FFSFFFSSFSSFSSSFSFFS	NULL	NULL	NULL	TrialProc	Irrelevant	BlockList	0	1	0	106118	10	105628	2	822	106450
TRSEscan	1161	2	60.002	1	2132635365	8/12/2010	18:14:03	1	BlockProc	SessionList	2	2	1	11	NULL	NULL	NULL	NULL	11	2	11	Scenes	NULL	NULL	NULL	Scenes	2	4390	0	113518	10	109228	1	NULL	NULL	scene/s_258.bmp	NULL	NULL	NULL	NULL	NULL	NULL	Repeat	FFSFFFSSFSSFSSSFSFFS	NULL	NULL	NULL	TrialProc	Relevant	BlockList	0	2	0	109118	10	108628	1	582	109210
TRSEscan	1161	2	60.002	1	2132635365	8/12/2010	18:14:03	1	BlockProc	SessionList	2	2	1	12	NULL	NULL	NULL	NULL	12	2	12	Scenes	NULL	NULL	NULL	Scenes	1	6390	0	120518	10	114228	0	NULL	NULL	scene/s_345.bmp	NULL	NULL	NULL	NULL	NULL	NULL	Novel	FFSFFFSSFSSFSSSFSFFS	NULL	NULL	NULL	TrialProc	Relevant	BlockList	1	1	0	114118	10	113628	1	1046	114674
TRSEscan	1161	2	60.002	1	2132635365	8/12/2010	18:14:03	1	BlockProc	SessionList	2	2	1	13	NULL	NULL	NULL	NULL	13	2	13	Faces	NULL	NULL	NULL	Scenes	1	4390	0	125517	10	121227	2	NULL	NULL	face/f_067.bmp	NULL	NULL	NULL	NULL	NULL	NULL	Novel	FFSFFFSSFSSFSSSFSFFS	NULL	NULL	NULL	TrialProc	Irrelevant	BlockList	1	1	0	121117	9	120627	1	879	121506
TRSEscan	1161	2	60.002	1	2132635365	8/12/2010	18:14:03	1	BlockProc	SessionList	2	2	1	14	NULL	NULL	NULL	NULL	14	2	14	Scenes	NULL	NULL	NULL	Scenes	2	2390	0	128517	10	126227	1	NULL	NULL	scene/s_345.bmp	NULL	NULL	NULL	NULL	NULL	NULL	Repeat	FFSFFFSSFSSFSSSFSFFS	NULL	NULL	NULL	TrialProc	Relevant	BlockList	1	2	0	126117	10	125627	2	719	126346
TRSEscan	1161	2	60.002	1	2132635365	8/12/2010	18:14:03	1	BlockProc	SessionList	2	2	1	15	NULL	NULL	NULL	NULL	15	2	15	Scenes	NULL	NULL	NULL	Scenes	1	6390	0	135517	10	129227	0	NULL	NULL	scene/s_026.bmp	NULL	NULL	NULL	NULL	NULL	NULL	Novel	FFSFFFSSFSSFSSSFSFFS	NULL	NULL	NULL	TrialProc	Relevant	BlockList	1	1	0	129117	10	128627	1	951	129578
TRSEscan	1161	2	60.002	1	2132635365	8/12/2010	18:14:03	1	BlockProc	SessionList	2	2	1	16	NULL	NULL	NULL	NULL	16	2	16	Scenes	NULL	NULL	NULL	Scenes	1	4390	0	140517	10	136227	0	NULL	NULL	scene/s_045.bmp	NULL	NULL	NULL	NULL	NULL	NULL	Novel	FFSFFFSSFSSFSSSFSFFS	NULL	NULL	NULL	TrialProc	Relevant	BlockList	1	1	0	136117	10	135627	1	863	136490
TRSEscan	1161	2	60.002	1	2132635365	8/12/2010	18:14:03	1	BlockProc	SessionList	2	2	1	17	NULL	NULL	NULL	NULL	17	2	17	Faces	NULL	NULL	NULL	Scenes	1	6390	0	147517	10	141227	3	NULL	NULL	face/m_098.bmp	NULL	NULL	NULL	NULL	NULL	NULL	Novel	FFSFFFSSFSSFSSSFSFFS	NULL	NULL	NULL	TrialProc	Irrelevant	BlockList	1	1	0	141117	10	140627	1	1111	141738
TRSEscan	1161	2	60.002	1	2132635365	8/12/2010	18:14:03	1	BlockProc	SessionList	2	2	1	18	NULL	NULL	NULL	NULL	18	2	18	Scenes	NULL	NULL	NULL	Scenes	2	2390	0	150517	10	148227	1	NULL	NULL	scene/s_045.bmp	NULL	NULL	NULL	NULL	NULL	NULL	Repeat	FFSFFFSSFSSFSSSFSFFS	NULL	NULL	NULL	TrialProc	Relevant	BlockList	1	2	0	148117	10	147627	2	1670	149297
TRSEscan	1161	2	60.002	1	2132635365	8/12/2010	18:14:03	1	BlockProc	SessionList	2	2	1	19	NULL	NULL	NULL	NULL	19	2	19	Faces	NULL	NULL	NULL	Scenes	1	2390	0	153517	10	151227	1	NULL	NULL	face/m_098.bmp	NULL	NULL	NULL	NULL	NULL	NULL	Repeat	FFSFFFSSFSSFSSSFSFFS	NULL	NULL	NULL	TrialProc	Irrelevant	BlockList	1	1	0	151117	10	150627	1	1014	151641
TRSEscan	1161	2	60.002	1	2132635365	8/12/2010	18:14:03	1	BlockProc	SessionList	2	2	1	20	NULL	NULL	NULL	NULL	20	2	20	Faces	NULL	NULL	NULL	Scenes	1	6390	0	160517	10	154227	0	NULL	NULL	face/m_129.bmp	NULL	NULL	NULL	NULL	NULL	NULL	Novel	FFSFFFSSFSSFSSSFSFFS	NULL	NULL	NULL	TrialProc	Irrelevant	BlockList	1	1	0	154117	10	153627	1	830	154457
TRSEscan	1161	2	60.002	1	2132635365	8/12/2010	18:14:03	1	BlockProc	SessionList	2	2	1	21	NULL	NULL	NULL	NULL	21	2	21	Scenes	NULL	NULL	NULL	Scenes	1	4390	0	165516	10	161226	2	NULL	NULL	scene/s_242.bmp	NULL	NULL	NULL	NULL	NULL	NULL	Novel	FFSFFFSSFSSFSSSFSFFS	NULL	NULL	NULL	TrialProc	Relevant	BlockList	1	1	0	161116	9	160626	1	919	161545
TRSEscan	1161	2	60.002	1	2132635365	8/12/2010	18:14:03	1	BlockProc	SessionList	2	2	1	22	NULL	NULL	NULL	NULL	22	2	22		NULL	NULL	NULL	Scenes			NULL	NULL	NULL	NULL		180516	178626		NULL	NULL	NULL	NULL	NULL	NULL			NULL	NULL	NULL	FeedbackProc		BlockList	NULL	NULL	NULL	NULL	NULL	NULL	NULL	NULL	NULL
TRSEscan	1161	2	60.002	1	2132635365	8/12/2010	18:14:03	2	BlockProc	SessionList	2	2	2	1	-999999	185553	10	180626	1	3	23		1	2	1249	Categorize			NULL	NULL	NULL	NULL		NULL	NULL		200008	16	187826	0	200999	200009			0	202899	201009	InstrProc		BlockList	NULL	NULL	NULL	NULL	NULL	NULL	NULL	NULL	NULL
TRSEscan	1161	2	60.002	1	2132635365	8/12/2010	18:14:03	2	BlockProc	SessionList	2	2	2	2	NULL	NULL	NULL	NULL	2	3	24	Faces	NULL	NULL	NULL	Categorize	1	2390	0	205899	10	203609	0	NULL	NULL	face/m_036.bmp	NULL	NULL	NULL	NULL	NULL	NULL	Novel	FFSFFFSSFSSFSSSFSFFS	NULL	NULL	NULL	TrialProc	Irrelevant	BlockList	1	1	0	203499	10	203009	1	519	203528
TRSEscan	1161	2	60.002	1	2132635365	8/12/2010	18:14:03	2	BlockProc	SessionList	2	2	2	3	NULL	NULL	NULL	NULL	3	3	25	Faces	NULL	NULL	NULL	Categorize	1	4390	0	210899	10	206609	0	NULL	NULL	face/f_004.bmp	NULL	NULL	NULL	NULL	NULL	NULL	Novel	FFSFFFSSFSSFSSSFSFFS	NULL	NULL	NULL	TrialProc	Irrelevant	BlockList	1	1	0	206499	10	206009	1	463	206472
TRSEscan	1161	2	60.002	1	2132635365	8/12/2010	18:14:03	2	BlockProc	SessionList	2	2	2	4	NULL	NULL	NULL	NULL	4	3	26	Scenes	NULL	NULL	NULL	Categorize	2	6390	0	217898	10	211608	2	NULL	NULL	scene/s_058.bmp	NULL	NULL	NULL	NULL	NULL	NULL	Novel	FFSFFFSSFSSFSSSFSFFS	NULL	NULL	NULL	TrialProc	Irrelevant	BlockList	1	2	0	211498	9	211008	2	616	211624
TRSEscan	1161	2	60.002	1	2132635365	8/12/2010	18:14:03	2	BlockProc	SessionList	2	2	2	5	NULL	NULL	NULL	NULL	5	3	27	Faces	NULL	NULL	NULL	Categorize	1	4390	0	222898	10	218608	1	NULL	NULL	face/f_004.bmp	NULL	NULL	NULL	NULL	NULL	NULL	Repeat	FFSFFFSSFSSFSSSFSFFS	NULL	NULL	NULL	TrialProc	Irrelevant	BlockList	1	1	0	218498	10	218008	1	552	218560
TRSEscan	1161	2	60.002	1	2132635365	8/12/2010	18:14:03	2	BlockProc	SessionList	2	2	2	6	NULL	NULL	NULL	NULL	6	3	28	Faces	NULL	NULL	NULL	Categorize	1	2390	0	225898	10	223608	0	NULL	NULL	face/f_004.bmp	NULL	NULL	NULL	NULL	NULL	NULL	Repeat	FFSFFFSSFSSFSSSFSFFS	NULL	NULL	NULL	TrialProc	Irrelevant	BlockList	1	1	0	223498	10	223008	1	488	223496
TRSEscan	1161	2	60.002	1	2132635365	8/12/2010	18:14:03	2	BlockProc	SessionList	2	2	2	7	NULL	NULL	NULL	NULL	7	3	29	Faces	NULL	NULL	NULL	Categorize	1	6390	0	232898	10	226608	0	NULL	NULL	face/m_030.bmp	NULL	NULL	NULL	NULL	NULL	NULL	Novel	FFSFFFSSFSSFSSSFSFFS	NULL	NULL	NULL	TrialProc	Irrelevant	BlockList	1	1	0	226498	10	226008	1	399	226407
TRSEscan	1161	2	60.002	1	2132635365	8/12/2010	18:14:03	2	BlockProc	SessionList	2	2	2	8	NULL	NULL	NULL	NULL	8	3	30	Scenes	NULL	NULL	NULL	Categorize	2	2390	0	235898	10	233608	3	NULL	NULL	scene/s_096.bmp	NULL	NULL	NULL	NULL	NULL	NULL	Novel	FFSFFFSSFSSFSSSFSFFS	NULL	NULL	NULL	TrialProc	Irrelevant	BlockList	1	2	0	233498	10	233008	2	743	233751
TRSEscan	1161	2	60.002	1	2132635365	8/12/2010	18:14:03	2	BlockProc	SessionList	2	2	2	9	NULL	NULL	NULL	NULL	9	3	31	Scenes	NULL	NULL	NULL	Categorize	2	4390	0	240898	10	236608	0	NULL	NULL	scene/s_096.bmp	NULL	NULL	NULL	NULL	NULL	NULL	Repeat	FFSFFFSSFSSFSSSFSFFS	NULL	NULL	NULL	TrialProc	Irrelevant	BlockList	1	2	0	236498	10	236008	2	583	236591
TRSEscan	1161	2	60.002	1	2132635365	8/12/2010	18:14:03	2	BlockProc	SessionList	2	2	2	10	NULL	NULL	NULL	NULL	10	3	32	Faces	NULL	NULL	NULL	Categorize	1	2390	0	243898	10	241608	2	NULL	NULL	face/m_030.bmp	NULL	NULL	NULL	NULL	NULL	NULL	Repeat	FFSFFFSSFSSFSSSFSFFS	NULL	NULL	NULL	TrialProc	Irrelevant	BlockList	1	1	0	241498	10	241008	1	671	241679
TRSEscan	1161	2	60.002	1	2132635365	8/12/2010	18:14:03	2	BlockProc	SessionList	2	2	2	11	NULL	NULL	NULL	NULL	11	3	33	Scenes	NULL	NULL	NULL	Categorize	2	4390	0	248898	10	244608	1	NULL	NULL	scene/s_096.bmp	NULL	NULL	NULL	NULL	NULL	NULL	Repeat	FFSFFFSSFSSFSSSFSFFS	NULL	NULL	NULL	TrialProc	Irrelevant	BlockList	0	2	0	244498	10	244008	1	383	244391
TRSEscan	1161	2	60.002	1	2132635365	8/12/2010	18:14:03	2	BlockProc	SessionList	2	2	2	12	NULL	NULL	NULL	NULL	12	3	34	Scenes	NULL	NULL	NULL	Categorize	2	6390	0	255898	10	249608	0	NULL	NULL	scene/s_100.bmp	NULL	NULL	NULL	NULL	NULL	NULL	Novel	FFSFFFSSFSSFSSSFSFFS	NULL	NULL	NULL	TrialProc	Irrelevant	BlockList	1	2	0	249498	10	249008	2	639	249647
TRSEscan	1161	2	60.002	1	2132635365	8/12/2010	18:14:03	2	BlockProc	SessionList	2	2	2	13	NULL	NULL	NULL	NULL	13	3	35	Faces	NULL	NULL	NULL	Categorize	1	4390	0	260897	10	256607	2	NULL	NULL	face/m_076.bmp	NULL	NULL	NULL	NULL	NULL	NULL	Novel	FFSFFFSSFSSFSSSFSFFS	NULL	NULL	NULL	TrialProc	Irrelevant	BlockList	1	1	0	256497	9	256007	1	584	256591
TRSEscan	1161	2	60.002	1	2132635365	8/12/2010	18:14:03	2	BlockProc	SessionList	2	2	2	14	NULL	NULL	NULL	NULL	14	3	36	Scenes	NULL	NULL	NULL	Categorize	2	2390	0	263897	10	261607	1	NULL	NULL	scene/s_100.bmp	NULL	NULL	NULL	NULL	NULL	NULL	Repeat	FFSFFFSSFSSFSSSFSFFS	NULL	NULL	NULL	TrialProc	Irrelevant	BlockList	1	2	0	261497	10	261007	2	1048	262055
TRSEscan	1161	2	60.002	1	2132635365	8/12/2010	18:14:03	2	BlockProc	SessionList	2	2	2	15	NULL	NULL	NULL	NULL	15	3	37	Scenes	NULL	NULL	NULL	Categorize	2	6390	0	270897	10	264607	0	NULL	NULL	scene/s_366.bmp	NULL	NULL	NULL	NULL	NULL	NULL	Novel	FFSFFFSSFSSFSSSFSFFS	NULL	NULL	NULL	TrialProc	Irrelevant	BlockList	1	2	0	264497	10	264007	2	544	264551
TRSEscan	1161	2	60.002	1	2132635365	8/12/2010	18:14:03	2	BlockProc	SessionList	2	2	2	16	NULL	NULL	NULL	NULL	16	3	38	Scenes	NULL	NULL	NULL	Categorize	2	4390	0	275897	10	271607	0	NULL	NULL	scene/s_267.bmp	NULL	NULL	NULL	NULL	NULL	NULL	Novel	FFSFFFSSFSSFSSSFSFFS	NULL	NULL	NULL	TrialProc	Irrelevant	BlockList	1	2	0	271497	10	271007	2	527	271534
TRSEscan	1161	2	60.002	1	2132635365	8/12/2010	18:14:03	2	BlockProc	SessionList	2	2	2	17	NULL	NULL	NULL	NULL	17	3	39	Faces	NULL	NULL	NULL	Categorize	1	6390	0	282897	10	276607	3	NULL	NULL	face/f_075.bmp	NULL	NULL	NULL	NULL	NULL	NULL	Novel	FFSFFFSSFSSFSSSFSFFS	NULL	NULL	NULL	TrialProc	Irrelevant	BlockList	1	1	0	276497	10	276007	1	559	276566
TRSEscan	1161	2	60.002	1	2132635365	8/12/2010	18:14:03	2	BlockProc	SessionList	2	2	2	18	NULL	NULL	NULL	NULL	18	3	40	Scenes	NULL	NULL	NULL	Categorize	2	2390	0	285897	10	283607	1	NULL	NULL	scene/s_267.bmp	NULL	NULL	NULL	NULL	NULL	NULL	Repeat	FFSFFFSSFSSFSSSFSFFS	NULL	NULL	NULL	TrialProc	Irrelevant	BlockList	1	2	0	283497	10	283007	2	935	283942
TRSEscan	1161	2	60.002	1	2132635365	8/12/2010	18:14:03	2	BlockProc	SessionList	2	2	2	19	NULL	NULL	NULL	NULL	19	3	41	Faces	NULL	NULL	NULL	Categorize	1	2390	0	288897	10	286607	1	NULL	NULL	face/f_075.bmp	NULL	NULL	NULL	NULL	NULL	NULL	Repeat	FFSFFFSSFSSFSSSFSFFS	NULL	NULL	NULL	TrialProc	Irrelevant	BlockList	1	1	0	286497	10	286007	1	511	286518
TRSEscan	1161	2	60.002	1	2132635365	8/12/2010	18:14:03	2	BlockProc	SessionList	2	2	2	20	NULL	NULL	NULL	NULL	20	3	42	Faces	NULL	NULL	NULL	Categorize	1	6390	0	295897	10	289607	0	NULL	NULL	face/m_010.bmp	NULL	NULL	NULL	NULL	NULL	NULL	Novel	FFSFFFSSFSSFSSSFSFFS	NULL	NULL	NULL	TrialProc	Irrelevant	BlockList	1	1	0	289497	10	289007	1	527	289534
TRSEscan	1161	2	60.002	1	2132635365	8/12/2010	18:14:03	2	BlockProc	SessionList	2	2	2	21	NULL	NULL	NULL	NULL	21	3	43	Scenes	NULL	NULL	NULL	Categorize	2	4390	0	300896	10	296606	2	NULL	NULL	scene/s_170.bmp	NULL	NULL	NULL	NULL	NULL	NULL	Novel	FFSFFFSSFSSFSSSFSFFS	NULL	NULL	NULL	TrialProc	Irrelevant	BlockList	1	2	0	296496	9	296006	2	592	296598
TRSEscan	1161	2	60.002	1	2132635365	8/12/2010	18:14:03	2	BlockProc	SessionList	2	2	2	22	NULL	NULL	NULL	NULL	22	3	44		NULL	NULL	NULL	Categorize			NULL	NULL	NULL	NULL		315896	314006		NULL	NULL	NULL	NULL	NULL	NULL			NULL	NULL	NULL	FeedbackProc		BlockList	NULL	NULL	NULL	NULL	NULL	NULL	NULL	NULL	NULL
TRSEscan	1161	2	60.002	1	2132635365	8/12/2010	18:14:03	3	BlockProc	SessionList	2	2	3	1	-999999	318581	10	316006	1	4	45		1	2	2224	Both			NULL	NULL	NULL	NULL		NULL	NULL		335333	1	321823	0	336329	335339			0	338229	336339	InstrProc		BlockList	NULL	NULL	NULL	NULL	NULL	NULL	NULL	NULL	NULL
TRSEscan	1161	2	60.002	1	2132635365	8/12/2010	18:14:03	3	BlockProc	SessionList	2	2	3	2	NULL	NULL	NULL	NULL	2	4	46	Faces	NULL	NULL	NULL	Both	1	2390	0	341229	10	338939	0	NULL	NULL	face/f_015.bmp	NULL	NULL	NULL	NULL	NULL	NULL	Novel	FFSFFFSSFSSFSSSFSFFS	NULL	NULL	NULL	TrialProc	Relevant	BlockList	1	1	0	338829	10	338339	1	754	339093
TRSEscan	1161	2	60.002	1	2132635365	8/12/2010	18:14:03	3	BlockProc	SessionList	2	2	3	3	NULL	NULL	NULL	NULL	3	4	47	Faces	NULL	NULL	NULL	Both	1	4390	0	346229	10	341939	0	NULL	NULL	face/m_043.bmp	NULL	NULL	NULL	NULL	NULL	NULL	Novel	FFSFFFSSFSSFSSSFSFFS	NULL	NULL	NULL	TrialProc	Relevant	BlockList	0	1	0	341829	10	341339	2	922	342261
TRSEscan	1161	2	60.002	1	2132635365	8/12/2010	18:14:03	3	BlockProc	SessionList	2	2	3	4	NULL	NULL	NULL	NULL	4	4	48	Scenes	NULL	NULL	NULL	Both	1	6390	0	353228	10	346938	2	NULL	NULL	scene/s_408.bmp	NULL	NULL	NULL	NULL	NULL	NULL	Novel	FFSFFFSSFSSFSSSFSFFS	NULL	NULL	NULL	TrialProc	Relevant	BlockList	1	1	0	346828	9	346338	1	866	347204
TRSEscan	1161	2	60.002	1	2132635365	8/12/2010	18:14:03	3	BlockProc	SessionList	2	2	3	5	NULL	NULL	NULL	NULL	5	4	49	Faces	NULL	NULL	NULL	Both	2	4390	0	358228	10	353938	1	NULL	NULL	face/m_043.bmp	NULL	NULL	NULL	NULL	NULL	NULL	Repeat	FFSFFFSSFSSFSSSFSFFS	NULL	NULL	NULL	TrialProc	Relevant	BlockList	1	2	0	353828	10	353338	2	1066	354404
TRSEscan	1161	2	60.002	1	2132635365	8/12/2010	18:14:03	3	BlockProc	SessionList	2	2	3	6	NULL	NULL	NULL	NULL	6	4	50	Faces	NULL	NULL	NULL	Both	2	2390	0	361228	10	358938	0	NULL	NULL	face/m_043.bmp	NULL	NULL	NULL	NULL	NULL	NULL	Repeat	FFSFFFSSFSSFSSSFSFFS	NULL	NULL	NULL	TrialProc	Relevant	BlockList	1	2	0	358828	10	358338	2	834	359172
TRSEscan	1161	2	60.002	1	2132635365	8/12/2010	18:14:03	3	BlockProc	SessionList	2	2	3	7	NULL	NULL	NULL	NULL	7	4	51	Faces	NULL	NULL	NULL	Both	1	6390	0	368228	10	361938	0	NULL	NULL	face/f_129.bmp	NULL	NULL	NULL	NULL	NULL	NULL	Novel	FFSFFFSSFSSFSSSFSFFS	NULL	NULL	NULL	TrialProc	Relevant	BlockList	1	1	0	361828	10	361338	1	1034	362372
TRSEscan	1161	2	60.002	1	2132635365	8/12/2010	18:14:03	3	BlockProc	SessionList	2	2	3	8	NULL	NULL	NULL	NULL	8	4	52	Scenes	NULL	NULL	NULL	Both	1	2390	0	371228	10	368938	3	NULL	NULL	scene/s_349.bmp	NULL	NULL	NULL	NULL	NULL	NULL	Novel	FFSFFFSSFSSFSSSFSFFS	NULL	NULL	NULL	TrialProc	Relevant	BlockList	1	1	0	368828	10	368338	1	1122	369460
TRSEscan	1161	2	60.002	1	2132635365	8/12/2010	18:14:03	3	BlockProc	SessionList	2	2	3	9	NULL	NULL	NULL	NULL	9	4	53	Scenes	NULL	NULL	NULL	Both	2	4390	0	376228	10	371938	0	NULL	NULL	scene/s_349.bmp	NULL	NULL	NULL	NULL	NULL	NULL	Repeat	FFSFFFSSFSSFSSSFSFFS	NULL	NULL	NULL	TrialProc	Relevant	BlockList	0	2	0	371828	10	371338	1	1090	372428
TRSEscan	1161	2	60.002	1	2132635365	8/12/2010	18:14:03	3	BlockProc	SessionList	2	2	3	10	NULL	NULL	NULL	NULL	10	4	54	Faces	NULL	NULL	NULL	Both	2	2390	0	379228	10	376938	2	NULL	NULL	face/f_129.bmp	NULL	NULL	NULL	NULL	NULL	NULL	Repeat	FFSFFFSSFSSFSSSFSFFS	NULL	NULL	NULL	TrialProc	Relevant	BlockList	0	2	0	376828	10	376338	1	1346	377684
TRSEscan	1161	2	60.002	1	2132635365	8/12/2010	18:14:03	3	BlockProc	SessionList	2	2	3	11	NULL	NULL	NULL	NULL	11	4	55	Scenes	NULL	NULL	NULL	Both	2	4390	0	384228	10	379938	1	NULL	NULL	scene/s_349.bmp	NULL	NULL	NULL	NULL	NULL	NULL	Repeat	FFSFFFSSFSSFSSSFSFFS	NULL	NULL	NULL	TrialProc	Relevant	BlockList	1	2	0	379828	10	379338	2	954	380292
TRSEscan	1161	2	60.002	1	2132635365	8/12/2010	18:14:03	3	BlockProc	SessionList	2	2	3	12	NULL	NULL	NULL	NULL	12	4	56	Scenes	NULL	NULL	NULL	Both	1	6390	0	391227	10	384937	0	NULL	NULL	scene/s_259.bmp	NULL	NULL	NULL	NULL	NULL	NULL	Novel	FFSFFFSSFSSFSSSFSFFS	NULL	NULL	NULL	TrialProc	Relevant	BlockList	1	1	0	384827	9	384337	1	955	385292
TRSEscan	1161	2	60.002	1	2132635365	8/12/2010	18:14:03	3	BlockProc	SessionList	2	2	3	13	NULL	NULL	NULL	NULL	13	4	57	Faces	NULL	NULL	NULL	Both	1	4390	0	396227	10	391937	2	NULL	NULL	face/m_018.bmp	NULL	NULL	NULL	NULL	NULL	NULL	Novel	FFSFFFSSFSSFSSSFSFFS	NULL	NULL	NULL	TrialProc	Relevant	BlockList	1	1	0	391827	10	391337	1	842	392179
TRSEscan	1161	2	60.002	1	2132635365	8/12/2010	18:14:03	3	BlockProc	SessionList	2	2	3	14	NULL	NULL	NULL	NULL	14	4	58	Scenes	NULL	NULL	NULL	Both	2	2390	0	399227	10	396937	1	NULL	NULL	scene/s_259.bmp	NULL	NULL	NULL	NULL	NULL	NULL	Repeat	FFSFFFSSFSSFSSSFSFFS	NULL	NULL	NULL	TrialProc	Relevant	BlockList	0	2	0	396827	10	396337		0	0
TRSEscan	1161	2	60.002	1	2132635365	8/12/2010	18:14:03	3	BlockProc	SessionList	2	2	3	15	NULL	NULL	NULL	NULL	15	4	59	Scenes	NULL	NULL	NULL	Both	1	6390	0	406227	10	399937	0	NULL	NULL	scene/s_414.bmp	NULL	NULL	NULL	NULL	NULL	NULL	Novel	FFSFFFSSFSSFSSSFSFFS	NULL	NULL	NULL	TrialProc	Relevant	BlockList	0	1	0	399827	10	399337	2	1282	400619
TRSEscan	1161	2	60.002	1	2132635365	8/12/2010	18:14:03	3	BlockProc	SessionList	2	2	3	16	NULL	NULL	NULL	NULL	16	4	60	Scenes	NULL	NULL	NULL	Both	1	4390	0	411227	10	406937	0	NULL	NULL	scene/s_046.bmp	NULL	NULL	NULL	NULL	NULL	NULL	Novel	FFSFFFSSFSSFSSSFSFFS	NULL	NULL	NULL	TrialProc	Relevant	BlockList	1	1	0	406827	10	406337	1	842	407179
TRSEscan	1161	2	60.002	1	2132635365	8/12/2010	18:14:03	3	BlockProc	SessionList	2	2	3	17	NULL	NULL	NULL	NULL	17	4	61	Faces	NULL	NULL	NULL	Both	1	6390	0	418227	10	411937	3	NULL	NULL	face/m_075.bmp	NULL	NULL	NULL	NULL	NULL	NULL	Novel	FFSFFFSSFSSFSSSFSFFS	NULL	NULL	NULL	TrialProc	Relevant	BlockList	1	1	0	411827	10	411337	1	1090	412427
TRSEscan	1161	2	60.002	1	2132635365	8/12/2010	18:14:03	3	BlockProc	SessionList	2	2	3	18	NULL	NULL	NULL	NULL	18	4	62	Scenes	NULL	NULL	NULL	Both	2	2390	0	421227	10	418937	1	NULL	NULL	scene/s_046.bmp	NULL	NULL	NULL	NULL	NULL	NULL	Repeat	FFSFFFSSFSSFSSSFSFFS	NULL	NULL	NULL	TrialProc	Relevant	BlockList	1	2	0	418827	10	418337	2	1626	419963
TRSEscan	1161	2	60.002	1	2132635365	8/12/2010	18:14:03	3	BlockProc	SessionList	2	2	3	19	NULL	NULL	NULL	NULL	19	4	63	Faces	NULL	NULL	NULL	Both	2	2390	0	424227	10	421937	1	NULL	NULL	face/m_075.bmp	NULL	NULL	NULL	NULL	NULL	NULL	Repeat	FFSFFFSSFSSFSSSFSFFS	NULL	NULL	NULL	TrialProc	Relevant	BlockList	1	2	0	421827	10	421337	2	890	422227
TRSEscan	1161	2	60.002	1	2132635365	8/12/2010	18:14:03	3	BlockProc	SessionList	2	2	3	20	NULL	NULL	NULL	NULL	20	4	64	Faces	NULL	NULL	NULL	Both	1	6390	0	431226	9	424936	0	NULL	NULL	face/f_046.bmp	NULL	NULL	NULL	NULL	NULL	NULL	Novel	FFSFFFSSFSSFSSSFSFFS	NULL	NULL	NULL	TrialProc	Relevant	BlockList	1	1	0	424827	10	424337	1	874	425211
TRSEscan	1161	2	60.002	1	2132635365	8/12/2010	18:14:03	3	BlockProc	SessionList	2	2	3	21	NULL	NULL	NULL	NULL	21	4	65	Scenes	NULL	NULL	NULL	Both	1	4390	0	436226	10	431936	2	NULL	NULL	scene/s_369.bmp	NULL	NULL	NULL	NULL	NULL	NULL	Novel	FFSFFFSSFSSFSSSFSFFS	NULL	NULL	NULL	TrialProc	Relevant	BlockList	1	1	0	431826	10	431336	1	882	432218
TRSEscan	1161	2	60.002	1	2132635365	8/12/2010	18:14:03	3	BlockProc	SessionList	2	2	3	22	NULL	NULL	NULL	NULL	22	4	66		NULL	NULL	NULL	Both			NULL	NULL	NULL	NULL		451226	449336		NULL	NULL	NULL	NULL	NULL	NULL			NULL	NULL	NULL	FeedbackProc		BlockList	NULL	NULL	NULL	NULL	NULL	NULL	NULL	NULL	NULL
TRSEscan	1161	2	60.002	1	2132635365	8/12/2010	18:14:03	4	BlockProc	SessionList	2	2	4	1	-999999	456986	10	451336	1	5	67		1	2	1344	Faces			NULL	NULL	NULL	NULL		NULL	NULL		469929	1	459353	0	470925	469935			0	472825	470935	InstrProc		BlockList	NULL	NULL	NULL	NULL	NULL	NULL	NULL	NULL	NULL
TRSEscan	1161	2	60.002	1	2132635365	8/12/2010	18:14:03	4	BlockProc	SessionList	2	2	4	2	NULL	NULL	NULL	NULL	2	5	68	Faces	NULL	NULL	NULL	Faces	1	2390	0	475825	10	473535	0	NULL	NULL	face/m_067.bmp	NULL	NULL	NULL	NULL	NULL	NULL	Novel	FFSFFFSSFSSFSSSFSFFS	NULL	NULL	NULL	TrialProc	Relevant	BlockList	1	1	0	473425	10	472935	1	922	473857
TRSEscan	1161	2	60.002	1	2132635365	8/12/2010	18:14:03	4	BlockProc	SessionList	2	2	4	3	NULL	NULL	NULL	NULL	3	5	69	Faces	NULL	NULL	NULL	Faces	1	4390	0	480825	10	476535	0	NULL	NULL	face/f_077.bmp	NULL	NULL	NULL	NULL	NULL	NULL	Novel	FFSFFFSSFSSFSSSFSFFS	NULL	NULL	NULL	TrialProc	Relevant	BlockList	0	1	0	476425	10	475935	2	970	476905
TRSEscan	1161	2	60.002	1	2132635365	8/12/2010	18:14:03	4	BlockProc	SessionList	2	2	4	4	NULL	NULL	NULL	NULL	4	5	70	Scenes	NULL	NULL	NULL	Faces	1	6390	0	487825	10	481535	2	NULL	NULL	scene/s_117.bmp	NULL	NULL	NULL	NULL	NULL	NULL	Novel	FFSFFFSSFSSFSSSFSFFS	NULL	NULL	NULL	TrialProc	Irrelevant	BlockList	1	1	0	481425	10	480935	1	834	481769
TRSEscan	1161	2	60.002	1	2132635365	8/12/2010	18:14:03	4	BlockProc	SessionList	2	2	4	5	NULL	NULL	NULL	NULL	5	5	71	Faces	NULL	NULL	NULL	Faces	2	4390	0	492825	10	488535	1	NULL	NULL	face/f_077.bmp	NULL	NULL	NULL	NULL	NULL	NULL	Repeat	FFSFFFSSFSSFSSSFSFFS	NULL	NULL	NULL	TrialProc	Relevant	BlockList	0	2	0	488425	10	487935	1	1282	489217
TRSEscan	1161	2	60.002	1	2132635365	8/12/2010	18:14:03	4	BlockProc	SessionList	2	2	4	6	NULL	NULL	NULL	NULL	6	5	72	Faces	NULL	NULL	NULL	Faces	2	2390	0	495825	10	493535	0	NULL	NULL	face/f_077.bmp	NULL	NULL	NULL	NULL	NULL	NULL	Repeat	FFSFFFSSFSSFSSSFSFFS	NULL	NULL	NULL	TrialProc	Relevant	BlockList	1	2	0	493425	10	492935	2	914	493849
TRSEscan	1161	2	60.002	1	2132635365	8/12/2010	18:14:03	4	BlockProc	SessionList	2	2	4	7	NULL	NULL	NULL	NULL	7	5	73	Faces	NULL	NULL	NULL	Faces	1	6390	0	502825	10	496535	0	NULL	NULL	face/m_125.bmp	NULL	NULL	NULL	NULL	NULL	NULL	Novel	FFSFFFSSFSSFSSSFSFFS	NULL	NULL	NULL	TrialProc	Relevant	BlockList	1	1	0	496425	10	495935	1	842	496777
TRSEscan	1161	2	60.002	1	2132635365	8/12/2010	18:14:03	4	BlockProc	SessionList	2	2	4	8	NULL	NULL	NULL	NULL	8	5	74	Scenes	NULL	NULL	NULL	Faces	1	2390	0	505825	10	503535	3	NULL	NULL	scene/s_088.bmp	NULL	NULL	NULL	NULL	NULL	NULL	Novel	FFSFFFSSFSSFSSSFSFFS	NULL	NULL	NULL	TrialProc	Irrelevant	BlockList	1	1	0	503425	10	502935	1	762	503697
TRSEscan	1161	2	60.002	1	2132635365	8/12/2010	18:14:03	4	BlockProc	SessionList	2	2	4	9	NULL	NULL	NULL	NULL	9	5	75	Scenes	NULL	NULL	NULL	Faces	1	4390	0	510824	10	506534	0	NULL	NULL	scene/s_088.bmp	NULL	NULL	NULL	NULL	NULL	NULL	Repeat	FFSFFFSSFSSFSSSFSFFS	NULL	NULL	NULL	TrialProc	Irrelevant	BlockList	1	1	0	506424	9	505934	1	474	506408
TRSEscan	1161	2	60.002	1	2132635365	8/12/2010	18:14:03	4	BlockProc	SessionList	2	2	4	10	NULL	NULL	NULL	NULL	10	5	76	Faces	NULL	NULL	NULL	Faces	2	2390	0	513824	10	511534	2	NULL	NULL	face/m_125.bmp	NULL	NULL	NULL	NULL	NULL	NULL	Repeat	FFSFFFSSFSSFSSSFSFFS	NULL	NULL	NULL	TrialProc	Relevant	BlockList	0	2	0	511424	10	510934	1	1754	512688
TRSEscan	1161	2	60.002	1	2132635365	8/12/2010	18:14:03	4	BlockProc	SessionList	2	2	4	11	NULL	NULL	NULL	NULL	11	5	77	Scenes	NULL	NULL	NULL	Faces	1	4390	0	518824	10	514534	1	NULL	NULL	scene/s_088.bmp	NULL	NULL	NULL	NULL	NULL	NULL	Repeat	FFSFFFSSFSSFSSSFSFFS	NULL	NULL	NULL	TrialProc	Irrelevant	BlockList	1	1	0	514424	10	513934	1	906	514840
TRSEscan	1161	2	60.002	1	2132635365	8/12/2010	18:14:03	4	BlockProc	SessionList	2	2	4	12	NULL	NULL	NULL	NULL	12	5	78	Scenes	NULL	NULL	NULL	Faces	1	6390	0	525824	10	519534	0	NULL	NULL	scene/s_029.bmp	NULL	NULL	NULL	NULL	NULL	NULL	Novel	FFSFFFSSFSSFSSSFSFFS	NULL	NULL	NULL	TrialProc	Irrelevant	BlockList	1	1	0	519424	10	518934	1	858	519792
TRSEscan	1161	2	60.002	1	2132635365	8/12/2010	18:14:03	4	BlockProc	SessionList	2	2	4	13	NULL	NULL	NULL	NULL	13	5	79	Faces	NULL	NULL	NULL	Faces	1	4390	0	530824	10	526534	2	NULL	NULL	face/f_115.bmp	NULL	NULL	NULL	NULL	NULL	NULL	Novel	FFSFFFSSFSSFSSSFSFFS	NULL	NULL	NULL	TrialProc	Relevant	BlockList	1	1	0	526424	10	525934	1	874	526808
TRSEscan	1161	2	60.002	1	2132635365	8/12/2010	18:14:03	4	BlockProc	SessionList	2	2	4	14	NULL	NULL	NULL	NULL	14	5	80	Scenes	NULL	NULL	NULL	Faces	1	2390	0	533824	10	531534	1	NULL	NULL	scene/s_029.bmp	NULL	NULL	NULL	NULL	NULL	NULL	Repeat	FFSFFFSSFSSFSSSFSFFS	NULL	NULL	NULL	TrialProc	Irrelevant	BlockList	1	1	0	531424	10	530934	1	778	531712
TRSEscan	1161	2	60.002	1	2132635365	8/12/2010	18:14:03	4	BlockProc	SessionList	2	2	4	15	NULL	NULL	NULL	NULL	15	5	81	Scenes	NULL	NULL	NULL	Faces	1	6390	0	540824	10	534534	0	NULL	NULL	scene/s_330.bmp	NULL	NULL	NULL	NULL	NULL	NULL	Novel	FFSFFFSSFSSFSSSFSFFS	NULL	NULL	NULL	TrialProc	Irrelevant	BlockList	1	1	0	534424	10	533934	1	722	534656
TRSEscan	1161	2	60.002	1	2132635365	8/12/2010	18:14:03	4	BlockProc	SessionList	2	2	4	16	NULL	NULL	NULL	NULL	16	5	82	Scenes	NULL	NULL	NULL	Faces	1	4390	0	545824	10	541534	0	NULL	NULL	scene/s_210.bmp	NULL	NULL	NULL	NULL	NULL	NULL	Novel	FFSFFFSSFSSFSSSFSFFS	NULL	NULL	NULL	TrialProc	Irrelevant	BlockList	1	1	0	541424	10	540934	1	1234	542168
TRSEscan	1161	2	60.002	1	2132635365	8/12/2010	18:14:03	4	BlockProc	SessionList	2	2	4	17	NULL	NULL	NULL	NULL	17	5	83	Faces	NULL	NULL	NULL	Faces	1	6390	0	552823	10	546533	3	NULL	NULL	face/f_034.bmp	NULL	NULL	NULL	NULL	NULL	NULL	Novel	FFSFFFSSFSSFSSSFSFFS	NULL	NULL	NULL	TrialProc	Relevant	BlockList	1	1	0	546423	9	545933	1	1530	547463
TRSEscan	1161	2	60.002	1	2132635365	8/12/2010	18:14:03	4	BlockProc	SessionList	2	2	4	18	NULL	NULL	NULL	NULL	18	5	84	Scenes	NULL	NULL	NULL	Faces	1	2390	0	555823	10	553533	1	NULL	NULL	scene/s_210.bmp	NULL	NULL	NULL	NULL	NULL	NULL	Repeat	FFSFFFSSFSSFSSSFSFFS	NULL	NULL	NULL	TrialProc	Irrelevant	BlockList	1	1	0	553423	10	552933	1	650	553583
TRSEscan	1161	2	60.002	1	2132635365	8/12/2010	18:14:03	4	BlockProc	SessionList	2	2	4	19	NULL	NULL	NULL	NULL	19	5	85	Faces	NULL	NULL	NULL	Faces	2	2390	0	558823	10	556533	1	NULL	NULL	face/f_034.bmp	NULL	NULL	NULL	NULL	NULL	NULL	Repeat	FFSFFFSSFSSFSSSFSFFS	NULL	NULL	NULL	TrialProc	Relevant	BlockList	1	2	0	556423	10	555933	2	914	556847
TRSEscan	1161	2	60.002	1	2132635365	8/12/2010	18:14:03	4	BlockProc	SessionList	2	2	4	20	NULL	NULL	NULL	NULL	20	5	86	Faces	NULL	NULL	NULL	Faces	1	6390	0	565823	10	559533	0	NULL	NULL	face/m_006.bmp	NULL	NULL	NULL	NULL	NULL	NULL	Novel	FFSFFFSSFSSFSSSFSFFS	NULL	NULL	NULL	TrialProc	Relevant	BlockList	1	1	0	559423	10	558933	1	698	559631
TRSEscan	1161	2	60.002	1	2132635365	8/12/2010	18:14:03	4	BlockProc	SessionList	2	2	4	21	NULL	NULL	NULL	NULL	21	5	87	Scenes	NULL	NULL	NULL	Faces	1	4390	0	570823	10	566533	2	NULL	NULL	scene/s_311.bmp	NULL	NULL	NULL	NULL	NULL	NULL	Novel	FFSFFFSSFSSFSSSFSFFS	NULL	NULL	NULL	TrialProc	Irrelevant	BlockList	0	1	0	566423	10	565933		0	0
TRSEscan	1161	2	60.002	1	2132635365	8/12/2010	18:14:03	4	BlockProc	SessionList	2	2	4	22	NULL	NULL	NULL	NULL	22	5	88		NULL	NULL	NULL	Faces			NULL	NULL	NULL	NULL		585823	583933		NULL	NULL	NULL	NULL	NULL	NULL			NULL	NULL	NULL	FeedbackProc		BlockList	NULL	NULL	NULL	NULL	NULL	NULL	NULL	NULL	NULL
TRSEscan	1161	3	60.002	1	-206166731	8/12/2010	18:24:20	1	BlockProc	SessionList	2	2	1	1	-999999	72195	4	62558	1	2	1		1	2	1186	Categorize			NULL	NULL	NULL	NULL		NULL	NULL		84330	1	74409	0	85331	84341			0	87231	85341	InstrProc		BlockList	NULL	NULL	NULL	NULL	NULL	NULL	NULL	NULL	NULL
TRSEscan	1161	3	60.002	1	-206166731	8/12/2010	18:24:20	1	BlockProc	SessionList	2	2	1	2	NULL	NULL	NULL	NULL	2	2	2	Faces	NULL	NULL	NULL	Categorize	1	4390	0	92231	10	87941	0	NULL	NULL	face/m_028.bmp	NULL	NULL	NULL	NULL	NULL	NULL	Novel	FFSFFFSFFSSFSFSSSFSS	NULL	NULL	NULL	TrialProc	Irrelevant	BlockList	1	1	0	87831	10	87341	1	517	87858
TRSEscan	1161	3	60.002	1	-206166731	8/12/2010	18:24:20	1	BlockProc	SessionList	2	2	1	3	NULL	NULL	NULL	NULL	3	2	3	Faces	NULL	NULL	NULL	Categorize	1	2390	0	95231	10	92941	0	NULL	NULL	face/f_127.bmp	NULL	NULL	NULL	NULL	NULL	NULL	Novel	FFSFFFSFFSSFSFSSSFSS	NULL	NULL	NULL	TrialProc	Irrelevant	BlockList	1	1	0	92831	10	92341	1	517	92858
TRSEscan	1161	3	60.002	1	-206166731	8/12/2010	18:24:20	1	BlockProc	SessionList	2	2	1	4	NULL	NULL	NULL	NULL	4	2	4	Scenes	NULL	NULL	NULL	Categorize	2	2390	0	98231	10	95941	2	NULL	NULL	scene/s_281.bmp	NULL	NULL	NULL	NULL	NULL	NULL	Novel	FFSFFFSFFSSFSFSSSFSS	NULL	NULL	NULL	TrialProc	Irrelevant	BlockList	1	2	0	95831	10	95341	2	437	95778
TRSEscan	1161	3	60.002	1	-206166731	8/12/2010	18:24:20	1	BlockProc	SessionList	2	2	1	5	NULL	NULL	NULL	NULL	5	2	5	Faces	NULL	NULL	NULL	Categorize	1	6390	0	105230	10	98940	1	NULL	NULL	face/f_113.bmp	NULL	NULL	NULL	NULL	NULL	NULL	Novel	FFSFFFSFFSSFSFSSSFSS	NULL	NULL	NULL	TrialProc	Irrelevant	BlockList	1	1	0	98830	9	98340	1	406	98746
TRSEscan	1161	3	60.002	1	-206166731	8/12/2010	18:24:20	1	BlockProc	SessionList	2	2	1	6	NULL	NULL	NULL	NULL	6	2	6	Faces	NULL	NULL	NULL	Categorize	1	4390	0	110230	10	105940	0	NULL	NULL	face/f_113.bmp	NULL	NULL	NULL	NULL	NULL	NULL	Repeat	FFSFFFSFFSSFSFSSSFSS	NULL	NULL	NULL	TrialProc	Irrelevant	BlockList	1	1	0	105830	10	105340	1	669	106009
TRSEscan	1161	3	60.002	1	-206166731	8/12/2010	18:24:20	1	BlockProc	SessionList	2	2	1	7	NULL	NULL	NULL	NULL	7	2	7	Faces	NULL	NULL	NULL	Categorize	1	6390	0	117230	10	110940	0	NULL	NULL	face/m_017.bmp	NULL	NULL	NULL	NULL	NULL	NULL	Novel	FFSFFFSFFSSFSFSSSFSS	NULL	NULL	NULL	TrialProc	Irrelevant	BlockList	1	1	0	110830	10	110340	1	637	110977
TRSEscan	1161	3	60.002	1	-206166731	8/12/2010	18:24:20	1	BlockProc	SessionList	2	2	1	8	NULL	NULL	NULL	NULL	8	2	8	Scenes	NULL	NULL	NULL	Categorize	2	2390	0	120230	10	117940	3	NULL	NULL	scene/s_442.bmp	NULL	NULL	NULL	NULL	NULL	NULL	Novel	FFSFFFSFFSSFSFSSSFSS	NULL	NULL	NULL	TrialProc	Irrelevant	BlockList	0	2	0	117830	10	117340		0	0
TRSEscan	1161	3	60.002	1	-206166731	8/12/2010	18:24:20	1	BlockProc	SessionList	2	2	1	9	NULL	NULL	NULL	NULL	9	2	9	Faces	NULL	NULL	NULL	Categorize	1	4390	0	125230	10	120940	1	NULL	NULL	face/f_019.bmp	NULL	NULL	NULL	NULL	NULL	NULL	Novel	FFSFFFSFFSSFSFSSSFSS	NULL	NULL	NULL	TrialProc	Irrelevant	BlockList	1	1	0	120830	10	120340	1	581	120921
TRSEscan	1161	3	60.002	1	-206166731	8/12/2010	18:24:20	1	BlockProc	SessionList	2	2	1	10	NULL	NULL	NULL	NULL	10	2	10	Faces	NULL	NULL	NULL	Categorize	1	6390	0	132230	10	125940	0	NULL	NULL	face/f_019.bmp	NULL	NULL	NULL	NULL	NULL	NULL	Repeat	FFSFFFSFFSSFSFSSSFSS	NULL	NULL	NULL	TrialProc	Irrelevant	BlockList	1	1	0	125830	10	125340	1	381	125721
TRSEscan	1161	3	60.002	1	-206166731	8/12/2010	18:24:20	1	BlockProc	SessionList	2	2	1	11	NULL	NULL	NULL	NULL	11	2	11	Scenes	NULL	NULL	NULL	Categorize	2	4390	0	137230	10	132940	2	NULL	NULL	scene/s_331.bmp	NULL	NULL	NULL	NULL	NULL	NULL	Novel	FFSFFFSFFSSFSFSSSFSS	NULL	NULL	NULL	TrialProc	Irrelevant	BlockList	1	2	0	132830	10	132340	2	517	132857
TRSEscan	1161	3	60.002	1	-206166731	8/12/2010	18:24:20	1	BlockProc	SessionList	2	2	1	12	NULL	NULL	NULL	NULL	12	2	12	Scenes	NULL	NULL	NULL	Categorize	2	2390	0	140229	10	137939	0	NULL	NULL	scene/s_331.bmp	NULL	NULL	NULL	NULL	NULL	NULL	Repeat	FFSFFFSFFSSFSFSSSFSS	NULL	NULL	NULL	TrialProc	Irrelevant	BlockList	1	2	0	137829	9	137339	2	550	137889
TRSEscan	1161	3	60.002	1	-206166731	8/12/2010	18:24:20	1	BlockProc	SessionList	2	2	1	13	NULL	NULL	NULL	NULL	13	2	13	Faces	NULL	NULL	NULL	Categorize	1	4390	0	145229	10	140939	2	NULL	NULL	face/f_019.bmp	NULL	NULL	NULL	NULL	NULL	NULL	Repeat	FFSFFFSFFSSFSFSSSFSS	NULL	NULL	NULL	TrialProc	Irrelevant	BlockList	1	1	0	140829	10	140339	1	421	140760
TRSEscan	1161	3	60.002	1	-206166731	8/12/2010	18:24:20	1	BlockProc	SessionList	2	2	1	14	NULL	NULL	NULL	NULL	14	2	14	Scenes	NULL	NULL	NULL	Categorize	2	2390	0	148229	10	145939	1	NULL	NULL	scene/s_061.bmp	NULL	NULL	NULL	NULL	NULL	NULL	Novel	FFSFFFSFFSSFSFSSSFSS	NULL	NULL	NULL	TrialProc	Irrelevant	BlockList	0	2	0	145829	10	145339		0	0
TRSEscan	1161	3	60.002	1	-206166731	8/12/2010	18:24:20	1	BlockProc	SessionList	2	2	1	15	NULL	NULL	NULL	NULL	15	2	15	Faces	NULL	NULL	NULL	Categorize	1	6390	0	155229	10	148939	1	NULL	NULL	face/f_045.bmp	NULL	NULL	NULL	NULL	NULL	NULL	Novel	FFSFFFSFFSSFSFSSSFSS	NULL	NULL	NULL	TrialProc	Irrelevant	BlockList	1	1	0	148829	10	148339	1	565	148904
TRSEscan	1161	3	60.002	1	-206166731	8/12/2010	18:24:20	1	BlockProc	SessionList	2	2	1	16	NULL	NULL	NULL	NULL	16	2	16	Scenes	NULL	NULL	NULL	Categorize	2	4390	0	160229	10	155939	1	NULL	NULL	scene/s_013.bmp	NULL	NULL	NULL	NULL	NULL	NULL	Novel	FFSFFFSFFSSFSFSSSFSS	NULL	NULL	NULL	TrialProc	Irrelevant	BlockList	1	2	0	155829	10	155339	2	749	156088
TRSEscan	1161	3	60.002	1	-206166731	8/12/2010	18:24:20	1	BlockProc	SessionList	2	2	1	17	NULL	NULL	NULL	NULL	17	2	17	Scenes	NULL	NULL	NULL	Categorize	2	6390	0	167229	10	160939	0	NULL	NULL	scene/s_013.bmp	NULL	NULL	NULL	NULL	NULL	NULL	Repeat	FFSFFFSFFSSFSFSSSFSS	NULL	NULL	NULL	TrialProc	Irrelevant	BlockList	1	2	0	160829	10	160339	2	917	161256
TRSEscan	1161	3	60.002	1	-206166731	8/12/2010	18:24:20	1	BlockProc	SessionList	2	2	1	18	NULL	NULL	NULL	NULL	18	2	18	Scenes	NULL	NULL	NULL	Categorize	2	2390	0	170229	10	167939	0	NULL	NULL	scene/s_013.bmp	NULL	NULL	NULL	NULL	NULL	NULL	Repeat	FFSFFFSFFSSFSFSSSFSS	NULL	NULL	NULL	TrialProc	Irrelevant	BlockList	1	2	0	167829	10	167339	2	509	167848
TRSEscan	1161	3	60.002	1	-206166731	8/12/2010	18:24:20	1	BlockProc	SessionList	2	2	1	19	NULL	NULL	NULL	NULL	19	2	19	Faces	NULL	NULL	NULL	Categorize	1	2390	0	173229	10	170939	3	NULL	NULL	face/f_045.bmp	NULL	NULL	NULL	NULL	NULL	NULL	Repeat	FFSFFFSFFSSFSFSSSFSS	NULL	NULL	NULL	TrialProc	Irrelevant	BlockList	1	1	0	170829	10	170339	1	645	170984
TRSEscan	1161	3	60.002	1	-206166731	8/12/2010	18:24:20	1	BlockProc	SessionList	2	2	1	20	NULL	NULL	NULL	NULL	20	2	20	Scenes	NULL	NULL	NULL	Categorize	2	4390	0	178229	10	173939	1	NULL	NULL	scene/s_282.bmp	NULL	NULL	NULL	NULL	NULL	NULL	Novel	FFSFFFSFFSSFSFSSSFSS	NULL	NULL	NULL	TrialProc	Irrelevant	BlockList	1	2	0	173829	10	173339	2	1085	174424
TRSEscan	1161	3	60.002	1	-206166731	8/12/2010	18:24:20	1	BlockProc	SessionList	2	2	1	21	NULL	NULL	NULL	NULL	21	2	21	Scenes	NULL	NULL	NULL	Categorize	2	6390	0	185228	10	178938	0	NULL	NULL	scene/s_282.bmp	NULL	NULL	NULL	NULL	NULL	NULL	Repeat	FFSFFFSFFSSFSFSSSFSS	NULL	NULL	NULL	TrialProc	Irrelevant	BlockList	1	2	0	178828	9	178338	2	742	179080
TRSEscan	1161	3	60.002	1	-206166731	8/12/2010	18:24:20	1	BlockProc	SessionList	2	2	1	22	NULL	NULL	NULL	NULL	22	2	22		NULL	NULL	NULL	Categorize			NULL	NULL	NULL	NULL		200228	198338		NULL	NULL	NULL	NULL	NULL	NULL			NULL	NULL	NULL	FeedbackProc		BlockList	NULL	NULL	NULL	NULL	NULL	NULL	NULL	NULL	NULL
TRSEscan	1161	3	60.002	1	-206166731	8/12/2010	18:24:20	2	BlockProc	SessionList	2	2	2	1	-999999	204639	10	200338	1	3	23		1	2	673	Both			NULL	NULL	NULL	NULL		NULL	NULL		220023	1	206339	0	221027	220037			0	222927	221037	InstrProc		BlockList	NULL	NULL	NULL	NULL	NULL	NULL	NULL	NULL	NULL
TRSEscan	1161	3	60.002	1	-206166731	8/12/2010	18:24:20	2	BlockProc	SessionList	2	2	2	2	NULL	NULL	NULL	NULL	2	3	24	Faces	NULL	NULL	NULL	Both	1	4390	0	227927	10	223637	0	NULL	NULL	face/m_026.bmp	NULL	NULL	NULL	NULL	NULL	NULL	Novel	FFSFFFSFFSSFSFSSSFSS	NULL	NULL	NULL	TrialProc	Relevant	BlockList	1	1	0	223527	10	223037	1	513	223550
TRSEscan	1161	3	60.002	1	-206166731	8/12/2010	18:24:20	2	BlockProc	SessionList	2	2	2	3	NULL	NULL	NULL	NULL	3	3	25	Faces	NULL	NULL	NULL	Both	1	2390	0	230927	10	228637	0	NULL	NULL	face/f_091.bmp	NULL	NULL	NULL	NULL	NULL	NULL	Novel	FFSFFFSFFSSFSFSSSFSS	NULL	NULL	NULL	TrialProc	Relevant	BlockList	0	1	0	228527	10	228037	2	857	228894
TRSEscan	1161	3	60.002	1	-206166731	8/12/2010	18:24:20	2	BlockProc	SessionList	2	2	2	4	NULL	NULL	NULL	NULL	4	3	26	Scenes	NULL	NULL	NULL	Both	1	2390	0	233927	10	231637	2	NULL	NULL	scene/s_417.bmp	NULL	NULL	NULL	NULL	NULL	NULL	Novel	FFSFFFSFFSSFSFSSSFSS	NULL	NULL	NULL	TrialProc	Relevant	BlockList	1	1	0	231527	10	231037	1	1065	232102
TRSEscan	1161	3	60.002	1	-206166731	8/12/2010	18:24:20	2	BlockProc	SessionList	2	2	2	5	NULL	NULL	NULL	NULL	5	3	27	Faces	NULL	NULL	NULL	Both	1	6390	0	240927	10	234637	1	NULL	NULL	face/m_019.bmp	NULL	NULL	NULL	NULL	NULL	NULL	Novel	FFSFFFSFFSSFSFSSSFSS	NULL	NULL	NULL	TrialProc	Relevant	BlockList	1	1	0	234527	10	234037	1	1025	235062
TRSEscan	1161	3	60.002	1	-206166731	8/12/2010	18:24:20	2	BlockProc	SessionList	2	2	2	6	NULL	NULL	NULL	NULL	6	3	28	Faces	NULL	NULL	NULL	Both	2	4390	0	245927	10	241637	0	NULL	NULL	face/m_019.bmp	NULL	NULL	NULL	NULL	NULL	NULL	Repeat	FFSFFFSFFSSFSFSSSFSS	NULL	NULL	NULL	TrialProc	Relevant	BlockList	1	2	0	241527	10	241037	2	857	241894
TRSEscan	1161	3	60.002	1	-206166731	8/12/2010	18:24:20	2	BlockProc	SessionList	2	2	2	7	NULL	NULL	NULL	NULL	7	3	29	Faces	NULL	NULL	NULL	Both	1	6390	0	252927	10	246637	0	NULL	NULL	face/f_013.bmp	NULL	NULL	NULL	NULL	NULL	NULL	Novel	FFSFFFSFFSSFSFSSSFSS	NULL	NULL	NULL	TrialProc	Relevant	BlockList	1	1	0	246527	10	246037	1	881	246918
TRSEscan	1161	3	60.002	1	-206166731	8/12/2010	18:24:20	2	BlockProc	SessionList	2	2	2	8	NULL	NULL	NULL	NULL	8	3	30	Scenes	NULL	NULL	NULL	Both	1	2390	0	255927	10	253637	3	NULL	NULL	scene/s_372.bmp	NULL	NULL	NULL	NULL	NULL	NULL	Novel	FFSFFFSFFSSFSFSSSFSS	NULL	NULL	NULL	TrialProc	Relevant	BlockList	1	1	0	253527	10	253037	1	953	253990
TRSEscan	1161	3	60.002	1	-206166731	8/12/2010	18:24:20	2	BlockProc	SessionList	2	2	2	9	NULL	NULL	NULL	NULL	9	3	31	Faces	NULL	NULL	NULL	Both	1	4390	0	260927	10	256637	1	NULL	NULL	face/f_124.bmp	NULL	NULL	NULL	NULL	NULL	NULL	Novel	FFSFFFSFFSSFSFSSSFSS	NULL	NULL	NULL	TrialProc	Relevant	BlockList	1	1	0	256527	10	256037	1	1249	257286
TRSEscan	1161	3	60.002	1	-206166731	8/12/2010	18:24:20	2	BlockProc	SessionList	2	2	2	10	NULL	NULL	NULL	NULL	10	3	32	Faces	NULL	NULL	NULL	Both	2	6390	0	267926	10	261636	0	NULL	NULL	face/f_124.bmp	NULL	NULL	NULL	NULL	NULL	NULL	Repeat	FFSFFFSFFSSFSFSSSFSS	NULL	NULL	NULL	TrialProc	Relevant	BlockList	1	2	0	261526	9	261036	2	914	261950
TRSEscan	1161	3	60.002	1	-206166731	8/12/2010	18:24:20	2	BlockProc	SessionList	2	2	2	11	NULL	NULL	NULL	NULL	11	3	33	Scenes	NULL	NULL	NULL	Both	1	4390	0	272926	10	268636	2	NULL	NULL	scene/s_367.bmp	NULL	NULL	NULL	NULL	NULL	NULL	Novel	FFSFFFSFFSSFSFSSSFSS	NULL	NULL	NULL	TrialProc	Relevant	BlockList	1	1	0	268526	10	268036	1	1745	269781
TRSEscan	1161	3	60.002	1	-206166731	8/12/2010	18:24:20	2	BlockProc	SessionList	2	2	2	12	NULL	NULL	NULL	NULL	12	3	34	Scenes	NULL	NULL	NULL	Both	2	2390	0	275926	10	273636	0	NULL	NULL	scene/s_367.bmp	NULL	NULL	NULL	NULL	NULL	NULL	Repeat	FFSFFFSFFSSFSFSSSFSS	NULL	NULL	NULL	TrialProc	Relevant	BlockList	0	2	0	273526	10	273036	1	1017	274053
TRSEscan	1161	3	60.002	1	-206166731	8/12/2010	18:24:20	2	BlockProc	SessionList	2	2	2	13	NULL	NULL	NULL	NULL	13	3	35	Faces	NULL	NULL	NULL	Both	2	4390	0	280926	10	276636	2	NULL	NULL	face/f_124.bmp	NULL	NULL	NULL	NULL	NULL	NULL	Repeat	FFSFFFSFFSSFSFSSSFSS	NULL	NULL	NULL	TrialProc	Relevant	BlockList	1	2	0	276526	10	276036	2	1033	277069
TRSEscan	1161	3	60.002	1	-206166731	8/12/2010	18:24:20	2	BlockProc	SessionList	2	2	2	14	NULL	NULL	NULL	NULL	14	3	36	Scenes	NULL	NULL	NULL	Both	1	2390	0	283926	10	281636	1	NULL	NULL	scene/s_317.bmp	NULL	NULL	NULL	NULL	NULL	NULL	Novel	FFSFFFSFFSSFSFSSSFSS	NULL	NULL	NULL	TrialProc	Relevant	BlockList	1	1	0	281526	10	281036	1	1017	282053
TRSEscan	1161	3	60.002	1	-206166731	8/12/2010	18:24:20	2	BlockProc	SessionList	2	2	2	15	NULL	NULL	NULL	NULL	15	3	37	Faces	NULL	NULL	NULL	Both	1	6390	0	290926	10	284636	1	NULL	NULL	face/f_096.bmp	NULL	NULL	NULL	NULL	NULL	NULL	Novel	FFSFFFSFFSSFSFSSSFSS	NULL	NULL	NULL	TrialProc	Relevant	BlockList	1	1	0	284526	10	284036	1	1009	285045
TRSEscan	1161	3	60.002	1	-206166731	8/12/2010	18:24:20	2	BlockProc	SessionList	2	2	2	16	NULL	NULL	NULL	NULL	16	3	38	Scenes	NULL	NULL	NULL	Both	1	4390	0	295926	10	291636	1	NULL	NULL	scene/s_253.bmp	NULL	NULL	NULL	NULL	NULL	NULL	Novel	FFSFFFSFFSSFSFSSSFSS	NULL	NULL	NULL	TrialProc	Relevant	BlockList	1	1	0	291526	10	291036	1	865	291901
TRSEscan	1161	3	60.002	1	-206166731	8/12/2010	18:24:20	2	BlockProc	SessionList	2	2	2	17	NULL	NULL	NULL	NULL	17	3	39	Scenes	NULL	NULL	NULL	Both	2	6390	0	302926	10	296636	0	NULL	NULL	scene/s_253.bmp	NULL	NULL	NULL	NULL	NULL	NULL	Repeat	FFSFFFSFFSSFSFSSSFSS	NULL	NULL	NULL	TrialProc	Relevant	BlockList	0	2	0	296526	10	296036	1	1265	297301
TRSEscan	1161	3	60.002	1	-206166731	8/12/2010	18:24:20	2	BlockProc	SessionList	2	2	2	18	NULL	NULL	NULL	NULL	18	3	40	Scenes	NULL	NULL	NULL	Both	2	2390	0	305925	10	303635	0	NULL	NULL	scene/s_253.bmp	NULL	NULL	NULL	NULL	NULL	NULL	Repeat	FFSFFFSFFSSFSFSSSFSS	NULL	NULL	NULL	TrialProc	Relevant	BlockList	1	2	0	303525	9	303035	2	1057	304092
TRSEscan	1161	3	60.002	1	-206166731	8/12/2010	18:24:20	2	BlockProc	SessionList	2	2	2	19	NULL	NULL	NULL	NULL	19	3	41	Faces	NULL	NULL	NULL	Both	2	2390	0	308925	10	306635	3	NULL	NULL	face/f_096.bmp	NULL	NULL	NULL	NULL	NULL	NULL	Repeat	FFSFFFSFFSSFSFSSSFSS	NULL	NULL	NULL	TrialProc	Relevant	BlockList	0	2	0	306525	10	306035	1	1049	307084
TRSEscan	1161	3	60.002	1	-206166731	8/12/2010	18:24:20	2	BlockProc	SessionList	2	2	2	20	NULL	NULL	NULL	NULL	20	3	42	Scenes	NULL	NULL	NULL	Both	1	4390	0	313925	10	309635	1	NULL	NULL	scene/s_023.bmp	NULL	NULL	NULL	NULL	NULL	NULL	Novel	FFSFFFSFFSSFSFSSSFSS	NULL	NULL	NULL	TrialProc	Relevant	BlockList	1	1	0	309525	10	309035	1	969	310004
TRSEscan	1161	3	60.002	1	-206166731	8/12/2010	18:24:20	2	BlockProc	SessionList	2	2	2	21	NULL	NULL	NULL	NULL	21	3	43	Scenes	NULL	NULL	NULL	Both	2	6390	0	320925	10	314635	0	NULL	NULL	scene/s_023.bmp	NULL	NULL	NULL	NULL	NULL	NULL	Repeat	FFSFFFSFFSSFSFSSSFSS	NULL	NULL	NULL	TrialProc	Relevant	BlockList	1	2	0	314525	10	314035	2	953	314988
TRSEscan	1161	3	60.002	1	-206166731	8/12/2010	18:24:20	2	BlockProc	SessionList	2	2	2	22	NULL	NULL	NULL	NULL	22	3	44		NULL	NULL	NULL	Both			NULL	NULL	NULL	NULL		335925	334035		NULL	NULL	NULL	NULL	NULL	NULL			NULL	NULL	NULL	FeedbackProc		BlockList	NULL	NULL	NULL	NULL	NULL	NULL	NULL	NULL	NULL
TRSEscan	1161	3	60.002	1	-206166731	8/12/2010	18:24:20	3	BlockProc	SessionList	2	2	3	1	-999999	340628	10	336035	1	4	45		1	2	690	Faces			NULL	NULL	NULL	NULL		NULL	NULL		354731	1	342335	0	355724	354734			0	357624	355734	InstrProc		BlockList	NULL	NULL	NULL	NULL	NULL	NULL	NULL	NULL	NULL
TRSEscan	1161	3	60.002	1	-206166731	8/12/2010	18:24:20	3	BlockProc	SessionList	2	2	3	2	NULL	NULL	NULL	NULL	2	4	46	Faces	NULL	NULL	NULL	Faces	1	4390	0	362624	10	358334	0	NULL	NULL	face/m_141.bmp	NULL	NULL	NULL	NULL	NULL	NULL	Novel	FFSFFFSFFSSFSFSSSFSS	NULL	NULL	NULL	TrialProc	Relevant	BlockList	1	1	0	358224	10	357734	1	757	358491
TRSEscan	1161	3	60.002	1	-206166731	8/12/2010	18:24:20	3	BlockProc	SessionList	2	2	3	3	NULL	NULL	NULL	NULL	3	4	47	Faces	NULL	NULL	NULL	Faces	1	2390	0	365624	10	363334	0	NULL	NULL	face/m_086.bmp	NULL	NULL	NULL	NULL	NULL	NULL	Novel	FFSFFFSFFSSFSFSSSFSS	NULL	NULL	NULL	TrialProc	Relevant	BlockList	1	1	0	363224	10	362734	1	1309	364043
TRSEscan	1161	3	60.002	1	-206166731	8/12/2010	18:24:20	3	BlockProc	SessionList	2	2	3	4	NULL	NULL	NULL	NULL	4	4	48	Scenes	NULL	NULL	NULL	Faces	1	2390	0	368624	10	366334	2	NULL	NULL	scene/s_154.bmp	NULL	NULL	NULL	NULL	NULL	NULL	Novel	FFSFFFSFFSSFSFSSSFSS	NULL	NULL	NULL	TrialProc	Irrelevant	BlockList	1	1	0	366224	10	365734	1	669	366403
TRSEscan	1161	3	60.002	1	-206166731	8/12/2010	18:24:20	3	BlockProc	SessionList	2	2	3	5	NULL	NULL	NULL	NULL	5	4	49	Faces	NULL	NULL	NULL	Faces	1	6390	0	375624	10	369334	1	NULL	NULL	face/f_012.bmp	NULL	NULL	NULL	NULL	NULL	NULL	Novel	FFSFFFSFFSSFSFSSSFSS	NULL	NULL	NULL	TrialProc	Relevant	BlockList	0	1	0	369224	10	368734	2	1461	370195
TRSEscan	1161	3	60.002	1	-206166731	8/12/2010	18:24:20	3	BlockProc	SessionList	2	2	3	6	NULL	NULL	NULL	NULL	6	4	50	Faces	NULL	NULL	NULL	Faces	2	4390	0	380624	10	376334	0	NULL	NULL	face/f_012.bmp	NULL	NULL	NULL	NULL	NULL	NULL	Repeat	FFSFFFSFFSSFSFSSSFSS	NULL	NULL	NULL	TrialProc	Relevant	BlockList	1	2	0	376224	10	375734	2	805	376539
TRSEscan	1161	3	60.002	1	-206166731	8/12/2010	18:24:20	3	BlockProc	SessionList	2	2	3	7	NULL	NULL	NULL	NULL	7	4	51	Faces	NULL	NULL	NULL	Faces	1	6390	0	387623	10	381333	0	NULL	NULL	face/m_145.bmp	NULL	NULL	NULL	NULL	NULL	NULL	Novel	FFSFFFSFFSSFSFSSSFSS	NULL	NULL	NULL	TrialProc	Relevant	BlockList	1	1	0	381223	9	380733	1	1390	382123
TRSEscan	1161	3	60.002	1	-206166731	8/12/2010	18:24:20	3	BlockProc	SessionList	2	2	3	8	NULL	NULL	NULL	NULL	8	4	52	Scenes	NULL	NULL	NULL	Faces	1	2390	0	390623	10	388333	3	NULL	NULL	scene/s_319.bmp	NULL	NULL	NULL	NULL	NULL	NULL	Novel	FFSFFFSFFSSFSFSSSFSS	NULL	NULL	NULL	TrialProc	Irrelevant	BlockList	1	1	0	388223	10	387733	1	765	388498
TRSEscan	1161	3	60.002	1	-206166731	8/12/2010	18:24:20	3	BlockProc	SessionList	2	2	3	9	NULL	NULL	NULL	NULL	9	4	53	Faces	NULL	NULL	NULL	Faces	1	4390	0	395623	10	391333	1	NULL	NULL	face/f_116.bmp	NULL	NULL	NULL	NULL	NULL	NULL	Novel	FFSFFFSFFSSFSFSSSFSS	NULL	NULL	NULL	TrialProc	Relevant	BlockList	1	1	0	391223	10	390733	1	877	391610
TRSEscan	1161	3	60.002	1	-206166731	8/12/2010	18:24:20	3	BlockProc	SessionList	2	2	3	10	NULL	NULL	NULL	NULL	10	4	54	Faces	NULL	NULL	NULL	Faces	2	6390	0	402623	10	396333	0	NULL	NULL	face/f_116.bmp	NULL	NULL	NULL	NULL	NULL	NULL	Repeat	FFSFFFSFFSSFSFSSSFSS	NULL	NULL	NULL	TrialProc	Relevant	BlockList	1	2	0	396223	10	395733	2	901	396634
TRSEscan	1161	3	60.002	1	-206166731	8/12/2010	18:24:20	3	BlockProc	SessionList	2	2	3	11	NULL	NULL	NULL	NULL	11	4	55	Scenes	NULL	NULL	NULL	Faces	1	4390	0	407623	10	403333	2	NULL	NULL	scene/s_411.bmp	NULL	NULL	NULL	NULL	NULL	NULL	Novel	FFSFFFSFFSSFSFSSSFSS	NULL	NULL	NULL	TrialProc	Irrelevant	BlockList	1	1	0	403223	10	402733	1	893	403626
TRSEscan	1161	3	60.002	1	-206166731	8/12/2010	18:24:20	3	BlockProc	SessionList	2	2	3	12	NULL	NULL	NULL	NULL	12	4	56	Scenes	NULL	NULL	NULL	Faces	1	2390	0	410623	10	408333	0	NULL	NULL	scene/s_411.bmp	NULL	NULL	NULL	NULL	NULL	NULL	Repeat	FFSFFFSFFSSFSFSSSFSS	NULL	NULL	NULL	TrialProc	Irrelevant	BlockList	1	1	0	408223	10	407733	1	1013	408746
TRSEscan	1161	3	60.002	1	-206166731	8/12/2010	18:24:20	3	BlockProc	SessionList	2	2	3	13	NULL	NULL	NULL	NULL	13	4	57	Faces	NULL	NULL	NULL	Faces	2	4390	0	415623	10	411333	2	NULL	NULL	face/f_116.bmp	NULL	NULL	NULL	NULL	NULL	NULL	Repeat	FFSFFFSFFSSFSFSSSFSS	NULL	NULL	NULL	TrialProc	Relevant	BlockList	0	2	0	411223	10	410733	1	829	411562
TRSEscan	1161	3	60.002	1	-206166731	8/12/2010	18:24:20	3	BlockProc	SessionList	2	2	3	14	NULL	NULL	NULL	NULL	14	4	58	Scenes	NULL	NULL	NULL	Faces	1	2390	0	418623	10	416333	1	NULL	NULL	scene/s_162.bmp	NULL	NULL	NULL	NULL	NULL	NULL	Novel	FFSFFFSFFSSFSFSSSFSS	NULL	NULL	NULL	TrialProc	Irrelevant	BlockList	1	1	0	416223	10	415733	1	773	416506
TRSEscan	1161	3	60.002	1	-206166731	8/12/2010	18:24:20	3	BlockProc	SessionList	2	2	3	15	NULL	NULL	NULL	NULL	15	4	59	Faces	NULL	NULL	NULL	Faces	1	6390	0	425622	10	419332	1	NULL	NULL	face/m_002.bmp	NULL	NULL	NULL	NULL	NULL	NULL	Novel	FFSFFFSFFSSFSFSSSFSS	NULL	NULL	NULL	TrialProc	Relevant	BlockList	1	1	0	419222	9	418732	1	718	419450
TRSEscan	1161	3	60.002	1	-206166731	8/12/2010	18:24:20	3	BlockProc	SessionList	2	2	3	16	NULL	NULL	NULL	NULL	16	4	60	Scenes	NULL	NULL	NULL	Faces	1	4390	0	430622	10	426332	1	NULL	NULL	scene/s_424.bmp	NULL	NULL	NULL	NULL	NULL	NULL	Novel	FFSFFFSFFSSFSFSSSFSS	NULL	NULL	NULL	TrialProc	Irrelevant	BlockList	0	1	0	426222	10	425732		0	0
TRSEscan	1161	3	60.002	1	-206166731	8/12/2010	18:24:20	3	BlockProc	SessionList	2	2	3	17	NULL	NULL	NULL	NULL	17	4	61	Scenes	NULL	NULL	NULL	Faces	1	6390	0	437622	10	431332	0	NULL	NULL	scene/s_424.bmp	NULL	NULL	NULL	NULL	NULL	NULL	Repeat	FFSFFFSFFSSFSFSSSFSS	NULL	NULL	NULL	TrialProc	Irrelevant	BlockList	1	1	0	431222	10	430732	1	733	431465
TRSEscan	1161	3	60.002	1	-206166731	8/12/2010	18:24:20	3	BlockProc	SessionList	2	2	3	18	NULL	NULL	NULL	NULL	18	4	62	Scenes	NULL	NULL	NULL	Faces	1	2390	0	440622	10	438332	0	NULL	NULL	scene/s_424.bmp	NULL	NULL	NULL	NULL	NULL	NULL	Repeat	FFSFFFSFFSSFSFSSSFSS	NULL	NULL	NULL	TrialProc	Irrelevant	BlockList	0	1	0	438222	10	437732	2	813	438545
TRSEscan	1161	3	60.002	1	-206166731	8/12/2010	18:24:20	3	BlockProc	SessionList	2	2	3	19	NULL	NULL	NULL	NULL	19	4	63	Faces	NULL	NULL	NULL	Faces	2	2390	0	443622	10	441332	3	NULL	NULL	face/m_002.bmp	NULL	NULL	NULL	NULL	NULL	NULL	Repeat	FFSFFFSFFSSFSFSSSFSS	NULL	NULL	NULL	TrialProc	Relevant	BlockList	0	2	0	441222	10	440732	1	2101	442833
TRSEscan	1161	3	60.002	1	-206166731	8/12/2010	18:24:20	3	BlockProc	SessionList	2	2	3	20	NULL	NULL	NULL	NULL	20	4	64	Scenes	NULL	NULL	NULL	Faces	1	4390	0	448622	10	444332	1	NULL	NULL	scene/s_257.bmp	NULL	NULL	NULL	NULL	NULL	NULL	Novel	FFSFFFSFFSSFSFSSSFSS	NULL	NULL	NULL	TrialProc	Irrelevant	BlockList	0	1	0	444222	10	443732		0	0
TRSEscan	1161	3	60.002	1	-206166731	8/12/2010	18:24:20	3	BlockProc	SessionList	2	2	3	21	NULL	NULL	NULL	NULL	21	4	65	Scenes	NULL	NULL	NULL	Faces	1	6390	0	455622	10	449332	0	NULL	NULL	scene/s_257.bmp	NULL	NULL	NULL	NULL	NULL	NULL	Repeat	FFSFFFSFFSSFSFSSSFSS	NULL	NULL	NULL	TrialProc	Irrelevant	BlockList	1	1	0	449222	10	448732	1	637	449369
TRSEscan	1161	3	60.002	1	-206166731	8/12/2010	18:24:20	3	BlockProc	SessionList	2	2	3	22	NULL	NULL	NULL	NULL	22	4	66		NULL	NULL	NULL	Faces			NULL	NULL	NULL	NULL		470621	468731		NULL	NULL	NULL	NULL	NULL	NULL			NULL	NULL	NULL	FeedbackProc		BlockList	NULL	NULL	NULL	NULL	NULL	NULL	NULL	NULL	NULL
TRSEscan	1161	3	60.002	1	-206166731	8/12/2010	18:24:20	4	BlockProc	SessionList	2	2	4	1	-999999	477632	10	470731	1	5	67		1	2	1208	Scenes			NULL	NULL	NULL	NULL		NULL	NULL		490816	1	479865	0	491821	490831			0	493721	491831	InstrProc		BlockList	NULL	NULL	NULL	NULL	NULL	NULL	NULL	NULL	NULL
TRSEscan	1161	3	60.002	1	-206166731	8/12/2010	18:24:20	4	BlockProc	SessionList	2	2	4	2	NULL	NULL	NULL	NULL	2	5	68	Faces	NULL	NULL	NULL	Scenes	1	4390	0	498721	10	494431	0	NULL	NULL	face/m_109.bmp	NULL	NULL	NULL	NULL	NULL	NULL	Novel	FFSFFFSFFSSFSFSSSFSS	NULL	NULL	NULL	TrialProc	Irrelevant	BlockList	1	1	0	494321	10	493831	1	561	494392
TRSEscan	1161	3	60.002	1	-206166731	8/12/2010	18:24:20	4	BlockProc	SessionList	2	2	4	3	NULL	NULL	NULL	NULL	3	5	69	Faces	NULL	NULL	NULL	Scenes	1	2390	0	501720	10	499430	0	NULL	NULL	face/f_043.bmp	NULL	NULL	NULL	NULL	NULL	NULL	Novel	FFSFFFSFFSSFSFSSSFSS	NULL	NULL	NULL	TrialProc	Irrelevant	BlockList	1	1	0	499320	9	498830	1	562	499392
TRSEscan	1161	3	60.002	1	-206166731	8/12/2010	18:24:20	4	BlockProc	SessionList	2	2	4	4	NULL	NULL	NULL	NULL	4	5	70	Scenes	NULL	NULL	NULL	Scenes	1	2390	0	504720	10	502430	2	NULL	NULL	scene/s_335.bmp	NULL	NULL	NULL	NULL	NULL	NULL	Novel	FFSFFFSFFSSFSFSSSFSS	NULL	NULL	NULL	TrialProc	Relevant	BlockList	1	1	0	502320	10	501830	1	809	502639
TRSEscan	1161	3	60.002	1	-206166731	8/12/2010	18:24:20	4	BlockProc	SessionList	2	2	4	5	NULL	NULL	NULL	NULL	5	5	71	Faces	NULL	NULL	NULL	Scenes	1	6390	0	511720	10	505430	1	NULL	NULL	face/f_119.bmp	NULL	NULL	NULL	NULL	NULL	NULL	Novel	FFSFFFSFFSSFSFSSSFSS	NULL	NULL	NULL	TrialProc	Irrelevant	BlockList	1	1	0	505320	10	504830	1	617	505447
TRSEscan	1161	3	60.002	1	-206166731	8/12/2010	18:24:20	4	BlockProc	SessionList	2	2	4	6	NULL	NULL	NULL	NULL	6	5	72	Faces	NULL	NULL	NULL	Scenes	1	4390	0	516720	10	512430	0	NULL	NULL	face/f_119.bmp	NULL	NULL	NULL	NULL	NULL	NULL	Repeat	FFSFFFSFFSSFSFSSSFSS	NULL	NULL	NULL	TrialProc	Irrelevant	BlockList	1	1	0	512320	10	511830	1	633	512463
TRSEscan	1161	3	60.002	1	-206166731	8/12/2010	18:24:20	4	BlockProc	SessionList	2	2	4	7	NULL	NULL	NULL	NULL	7	5	73	Faces	NULL	NULL	NULL	Scenes	1	6390	0	523720	10	517430	0	NULL	NULL	face/m_136.bmp	NULL	NULL	NULL	NULL	NULL	NULL	Novel	FFSFFFSFFSSFSFSSSFSS	NULL	NULL	NULL	TrialProc	Irrelevant	BlockList	1	1	0	517320	10	516830	1	1217	518047
TRSEscan	1161	3	60.002	1	-206166731	8/12/2010	18:24:20	4	BlockProc	SessionList	2	2	4	8	NULL	NULL	NULL	NULL	8	5	74	Scenes	NULL	NULL	NULL	Scenes	1	2390	0	526720	10	524430	3	NULL	NULL	scene/s_039.bmp	NULL	NULL	NULL	NULL	NULL	NULL	Novel	FFSFFFSFFSSFSFSSSFSS	NULL	NULL	NULL	TrialProc	Relevant	BlockList	0	1	0	524320	10	523830	2	425	524255
TRSEscan	1161	3	60.002	1	-206166731	8/12/2010	18:24:20	4	BlockProc	SessionList	2	2	4	9	NULL	NULL	NULL	NULL	9	5	75	Faces	NULL	NULL	NULL	Scenes	1	4390	0	531720	10	527430	1	NULL	NULL	face/f_136.bmp	NULL	NULL	NULL	NULL	NULL	NULL	Novel	FFSFFFSFFSSFSFSSSFSS	NULL	NULL	NULL	TrialProc	Irrelevant	BlockList	1	1	0	527320	10	526830	1	673	527503
TRSEscan	1161	3	60.002	1	-206166731	8/12/2010	18:24:20	4	BlockProc	SessionList	2	2	4	10	NULL	NULL	NULL	NULL	10	5	76	Faces	NULL	NULL	NULL	Scenes	1	6390	0	538720	10	532430	0	NULL	NULL	face/f_136.bmp	NULL	NULL	NULL	NULL	NULL	NULL	Repeat	FFSFFFSFFSSFSFSSSFSS	NULL	NULL	NULL	TrialProc	Irrelevant	BlockList	1	1	0	532320	10	531830	1	505	532335
TRSEscan	1161	3	60.002	1	-206166731	8/12/2010	18:24:20	4	BlockProc	SessionList	2	2	4	11	NULL	NULL	NULL	NULL	11	5	77	Scenes	NULL	NULL	NULL	Scenes	1	4390	0	543719	10	539429	2	NULL	NULL	scene/s_149.bmp	NULL	NULL	NULL	NULL	NULL	NULL	Novel	FFSFFFSFFSSFSFSSSFSS	NULL	NULL	NULL	TrialProc	Relevant	BlockList	1	1	0	539319	9	538829	1	1586	540415
TRSEscan	1161	3	60.002	1	-206166731	8/12/2010	18:24:20	4	BlockProc	SessionList	2	2	4	12	NULL	NULL	NULL	NULL	12	5	78	Scenes	NULL	NULL	NULL	Scenes	2	2390	0	546719	10	544429	0	NULL	NULL	scene/s_149.bmp	NULL	NULL	NULL	NULL	NULL	NULL	Repeat	FFSFFFSFFSSFSFSSSFSS	NULL	NULL	NULL	TrialProc	Relevant	BlockList	1	2	0	544319	10	543829	2	1017	544846
TRSEscan	1161	3	60.002	1	-206166731	8/12/2010	18:24:20	4	BlockProc	SessionList	2	2	4	13	NULL	NULL	NULL	NULL	13	5	79	Faces	NULL	NULL	NULL	Scenes	1	4390	0	551719	10	547429	2	NULL	NULL	face/f_136.bmp	NULL	NULL	NULL	NULL	NULL	NULL	Repeat	FFSFFFSFFSSFSFSSSFSS	NULL	NULL	NULL	TrialProc	Irrelevant	BlockList	1	1	0	547319	10	546829	1	529	547358
TRSEscan	1161	3	60.002	1	-206166731	8/12/2010	18:24:20	4	BlockProc	SessionList	2	2	4	14	NULL	NULL	NULL	NULL	14	5	80	Scenes	NULL	NULL	NULL	Scenes	1	2390	0	554719	10	552429	1	NULL	NULL	scene/s_188.bmp	NULL	NULL	NULL	NULL	NULL	NULL	Novel	FFSFFFSFFSSFSFSSSFSS	NULL	NULL	NULL	TrialProc	Relevant	BlockList	1	1	0	552319	10	551829	1	1105	552934
TRSEscan	1161	3	60.002	1	-206166731	8/12/2010	18:24:20	4	BlockProc	SessionList	2	2	4	15	NULL	NULL	NULL	NULL	15	5	81	Faces	NULL	NULL	NULL	Scenes	1	6390	0	561719	10	555429	1	NULL	NULL	face/m_079.bmp	NULL	NULL	NULL	NULL	NULL	NULL	Novel	FFSFFFSFFSSFSFSSSFSS	NULL	NULL	NULL	TrialProc	Irrelevant	BlockList	1	1	0	555319	10	554829	1	521	555350
TRSEscan	1161	3	60.002	1	-206166731	8/12/2010	18:24:20	4	BlockProc	SessionList	2	2	4	16	NULL	NULL	NULL	NULL	16	5	82	Scenes	NULL	NULL	NULL	Scenes	1	4390	0	566719	10	562429	1	NULL	NULL	scene/s_439.bmp	NULL	NULL	NULL	NULL	NULL	NULL	Novel	FFSFFFSFFSSFSFSSSFSS	NULL	NULL	NULL	TrialProc	Relevant	BlockList	0	1	0	562319	10	561829		0	0
TRSEscan	1161	3	60.002	1	-206166731	8/12/2010	18:24:20	4	BlockProc	SessionList	2	2	4	17	NULL	NULL	NULL	NULL	17	5	83	Scenes	NULL	NULL	NULL	Scenes	2	6390	0	573719	10	567429	0	NULL	NULL	scene/s_439.bmp	NULL	NULL	NULL	NULL	NULL	NULL	Repeat	FFSFFFSFFSSFSFSSSFSS	NULL	NULL	NULL	TrialProc	Relevant	BlockList	0	2	0	567319	10	566829	1	849	567678
TRSEscan	1161	3	60.002	1	-206166731	8/12/2010	18:24:20	4	BlockProc	SessionList	2	2	4	18	NULL	NULL	NULL	NULL	18	5	84	Scenes	NULL	NULL	NULL	Scenes	2	2390	0	576719	10	574429	0	NULL	NULL	scene/s_439.bmp	NULL	NULL	NULL	NULL	NULL	NULL	Repeat	FFSFFFSFFSSFSFSSSFSS	NULL	NULL	NULL	TrialProc	Relevant	BlockList	1	2	0	574319	10	573829	2	1337	575166
TRSEscan	1161	3	60.002	1	-206166731	8/12/2010	18:24:20	4	BlockProc	SessionList	2	2	4	19	NULL	NULL	NULL	NULL	19	5	85	Faces	NULL	NULL	NULL	Scenes	1	2390	0	579719	10	577429	3	NULL	NULL	face/m_079.bmp	NULL	NULL	NULL	NULL	NULL	NULL	Repeat	FFSFFFSFFSSFSFSSSFSS	NULL	NULL	NULL	TrialProc	Irrelevant	BlockList	1	1	0	577319	10	576829	1	609	577438
TRSEscan	1161	3	60.002	1	-206166731	8/12/2010	18:24:20	4	BlockProc	SessionList	2	2	4	20	NULL	NULL	NULL	NULL	20	5	86	Scenes	NULL	NULL	NULL	Scenes	1	4390	0	584718	10	580428	1	NULL	NULL	scene/s_406.bmp	NULL	NULL	NULL	NULL	NULL	NULL	Novel	FFSFFFSFFSSFSFSSSFSS	NULL	NULL	NULL	TrialProc	Relevant	BlockList	1	1	0	580318	9	579828	1	498	580326
TRSEscan	1161	3	60.002	1	-206166731	8/12/2010	18:24:20	4	BlockProc	SessionList	2	2	4	21	NULL	NULL	NULL	NULL	21	5	87	Scenes	NULL	NULL	NULL	Scenes	2	6390	0	591718	10	585428	0	NULL	NULL	scene/s_406.bmp	NULL	NULL	NULL	NULL	NULL	NULL	Repeat	FFSFFFSFFSSFSFSSSFSS	NULL	NULL	NULL	TrialProc	Relevant	BlockList	1	2	0	585318	10	584828	2	1281	586109
TRSEscan	1161	3	60.002	1	-206166731	8/12/2010	18:24:20	4	BlockProc	SessionList	2	2	4	22	NULL	NULL	NULL	NULL	22	5	88		NULL	NULL	NULL	Scenes			NULL	NULL	NULL	NULL		606718	604828		NULL	NULL	NULL	NULL	NULL	NULL			NULL	NULL	NULL	FeedbackProc		BlockList	NULL	NULL	NULL	NULL	NULL	NULL	NULL	NULL	NULL
TRSEscan	1161	4	60.002	1	525635101	8/12/2010	18:35:08	1	BlockProc	SessionList	2	2	1	1	-999999	64119	11	58785	1	2	1		1	2	945	Both			NULL	NULL	NULL	NULL		NULL	NULL		80006	1	66085	0	81007	80017			0	82907	81017	InstrProc		BlockList	NULL	NULL	NULL	NULL	NULL	NULL	NULL	NULL	NULL
TRSEscan	1161	4	60.002	1	525635101	8/12/2010	18:35:08	1	BlockProc	SessionList	2	2	1	2	NULL	NULL	NULL	NULL	2	2	2	Scenes	NULL	NULL	NULL	Both	1	2390	0	85907	10	83617	0	NULL	NULL	scene/s_017.bmp	NULL	NULL	NULL	NULL	NULL	NULL	Novel	SSFSSSFSFSSFFSFFFSFF	NULL	NULL	NULL	TrialProc	Relevant	BlockList	1	1	0	83507	10	83017	1	853	83870
TRSEscan	1161	4	60.002	1	525635101	8/12/2010	18:35:08	1	BlockProc	SessionList	2	2	1	3	NULL	NULL	NULL	NULL	3	2	3	Scenes	NULL	NULL	NULL	Both	2	4390	0	90907	10	86617	0	NULL	NULL	scene/s_017.bmp	NULL	NULL	NULL	NULL	NULL	NULL	Repeat	SSFSSSFSFSSFFSFFFSFF	NULL	NULL	NULL	TrialProc	Relevant	BlockList	1	2	0	86507	10	86017	2	693	86710
TRSEscan	1161	4	60.002	1	525635101	8/12/2010	18:35:08	1	BlockProc	SessionList	2	2	1	4	NULL	NULL	NULL	NULL	4	2	4	Faces	NULL	NULL	NULL	Both	1	6390	0	97907	10	91617	2	NULL	NULL	face/f_002.bmp	NULL	NULL	NULL	NULL	NULL	NULL	Novel	SSFSSSFSFSSFFSFFFSFF	NULL	NULL	NULL	TrialProc	Relevant	BlockList	1	1	0	91507	10	91017	1	653	91670
TRSEscan	1161	4	60.002	1	525635101	8/12/2010	18:35:08	1	BlockProc	SessionList	2	2	1	5	NULL	NULL	NULL	NULL	5	2	5	Scenes	NULL	NULL	NULL	Both	2	4390	0	102907	10	98617	1	NULL	NULL	scene/s_017.bmp	NULL	NULL	NULL	NULL	NULL	NULL	Repeat	SSFSSSFSFSSFFSFFFSFF	NULL	NULL	NULL	TrialProc	Relevant	BlockList	0	2	0	98507	10	98017	1	1077	99094
TRSEscan	1161	4	60.002	1	525635101	8/12/2010	18:35:08	1	BlockProc	SessionList	2	2	1	6	NULL	NULL	NULL	NULL	6	2	6	Scenes	NULL	NULL	NULL	Both	1	2390	0	105907	10	103617	0	NULL	NULL	scene/s_333.bmp	NULL	NULL	NULL	NULL	NULL	NULL	Novel	SSFSSSFSFSSFFSFFFSFF	NULL	NULL	NULL	TrialProc	Relevant	BlockList	1	1	0	103507	10	103017	1	1053	104070
TRSEscan	1161	4	60.002	1	525635101	8/12/2010	18:35:08	1	BlockProc	SessionList	2	2	1	7	NULL	NULL	NULL	NULL	7	2	7	Scenes	NULL	NULL	NULL	Both	1	4390	0	110907	10	106617	0	NULL	NULL	scene/s_249.bmp	NULL	NULL	NULL	NULL	NULL	NULL	Novel	SSFSSSFSFSSFFSFFFSFF	NULL	NULL	NULL	TrialProc	Relevant	BlockList	1	1	0	106507	10	106017	1	837	106854
TRSEscan	1161	4	60.002	1	525635101	8/12/2010	18:35:08	1	BlockProc	SessionList	2	2	1	8	NULL	NULL	NULL	NULL	8	2	8	Faces	NULL	NULL	NULL	Both	2	2390	0	113907	10	111617	3	NULL	NULL	face/f_002.bmp	NULL	NULL	NULL	NULL	NULL	NULL	Repeat	SSFSSSFSFSSFFSFFFSFF	NULL	NULL	NULL	TrialProc	Relevant	BlockList	1	2	0	111507	10	111017	2	884	111901
TRSEscan	1161	4	60.002	1	525635101	8/12/2010	18:35:08	1	BlockProc	SessionList	2	2	1	9	NULL	NULL	NULL	NULL	9	2	9	Scenes	NULL	NULL	NULL	Both	2	6390	0	120906	10	114616	1	NULL	NULL	scene/s_249.bmp	NULL	NULL	NULL	NULL	NULL	NULL	Repeat	SSFSSSFSFSSFFSFFFSFF	NULL	NULL	NULL	TrialProc	Relevant	BlockList	1	2	0	114506	9	114016	2	1221	115237
TRSEscan	1161	4	60.002	1	525635101	8/12/2010	18:35:08	1	BlockProc	SessionList	2	2	1	10	NULL	NULL	NULL	NULL	10	2	10	Faces	NULL	NULL	NULL	Both	2	4390	0	125906	10	121616	1	NULL	NULL	face/f_002.bmp	NULL	NULL	NULL	NULL	NULL	NULL	Repeat	SSFSSSFSFSSFFSFFFSFF	NULL	NULL	NULL	TrialProc	Relevant	BlockList	1	2	0	121506	10	121016	2	861	121877
TRSEscan	1161	4	60.002	1	525635101	8/12/2010	18:35:08	1	BlockProc	SessionList	2	2	1	11	NULL	NULL	NULL	NULL	11	2	11	Scenes	NULL	NULL	NULL	Both	1	6390	0	132906	10	126616	1	NULL	NULL	scene/s_236.bmp	NULL	NULL	NULL	NULL	NULL	NULL	Novel	SSFSSSFSFSSFFSFFFSFF	NULL	NULL	NULL	TrialProc	Relevant	BlockList	1	1	0	126506	10	126016	1	813	126829
TRSEscan	1161	4	60.002	1	525635101	8/12/2010	18:35:08	1	BlockProc	SessionList	2	2	1	12	NULL	NULL	NULL	NULL	12	2	12	Scenes	NULL	NULL	NULL	Both	1	2390	0	135906	10	133616	0	NULL	NULL	scene/s_370.bmp	NULL	NULL	NULL	NULL	NULL	NULL	Novel	SSFSSSFSFSSFFSFFFSFF	NULL	NULL	NULL	TrialProc	Relevant	BlockList	1	1	0	133506	10	133016	1	853	133869
TRSEscan	1161	4	60.002	1	525635101	8/12/2010	18:35:08	1	BlockProc	SessionList	2	2	1	13	NULL	NULL	NULL	NULL	13	2	13	Faces	NULL	NULL	NULL	Both	1	2390	0	138906	10	136616	2	NULL	NULL	face/m_113.bmp	NULL	NULL	NULL	NULL	NULL	NULL	Novel	SSFSSSFSFSSFFSFFFSFF	NULL	NULL	NULL	TrialProc	Relevant	BlockList	1	1	0	136506	10	136016	1	853	136869
TRSEscan	1161	4	60.002	1	525635101	8/12/2010	18:35:08	1	BlockProc	SessionList	2	2	1	14	NULL	NULL	NULL	NULL	14	2	14	Faces	NULL	NULL	NULL	Both	1	6390	0	145906	10	139616	0	NULL	NULL	face/m_087.bmp	NULL	NULL	NULL	NULL	NULL	NULL	Novel	SSFSSSFSFSSFFSFFFSFF	NULL	NULL	NULL	TrialProc	Relevant	BlockList	1	1	0	139506	10	139016	1	909	139925
TRSEscan	1161	4	60.002	1	525635101	8/12/2010	18:35:08	1	BlockProc	SessionList	2	2	1	15	NULL	NULL	NULL	NULL	15	2	15	Scenes	NULL	NULL	NULL	Both	1	4390	0	150906	10	146616	2	NULL	NULL	scene/s_402.bmp	NULL	NULL	NULL	NULL	NULL	NULL	Novel	SSFSSSFSFSSFFSFFFSFF	NULL	NULL	NULL	TrialProc	Relevant	BlockList	1	1	0	146506	10	146016	1	869	146885
TRSEscan	1161	4	60.002	1	525635101	8/12/2010	18:35:08	1	BlockProc	SessionList	2	2	1	16	NULL	NULL	NULL	NULL	16	2	16	Faces	NULL	NULL	NULL	Both	2	6390	0	157906	10	151616	1	NULL	NULL	face/m_087.bmp	NULL	NULL	NULL	NULL	NULL	NULL	Repeat	SSFSSSFSFSSFFSFFFSFF	NULL	NULL	NULL	TrialProc	Relevant	BlockList	1	2	0	151506	10	151016	2	836	151852
TRSEscan	1161	4	60.002	1	525635101	8/12/2010	18:35:08	1	BlockProc	SessionList	2	2	1	17	NULL	NULL	NULL	NULL	17	2	17	Faces	NULL	NULL	NULL	Both	1	2390	0	160905	10	158615	0	NULL	NULL	face/f_128.bmp	NULL	NULL	NULL	NULL	NULL	NULL	Novel	SSFSSSFSFSSFFSFFFSFF	NULL	NULL	NULL	TrialProc	Relevant	BlockList	1	1	0	158505	9	158015	1	885	158900
TRSEscan	1161	4	60.002	1	525635101	8/12/2010	18:35:08	1	BlockProc	SessionList	2	2	1	18	NULL	NULL	NULL	NULL	18	2	18	Faces	NULL	NULL	NULL	Both	1	4390	0	165905	10	161615	0	NULL	NULL	face/f_038.bmp	NULL	NULL	NULL	NULL	NULL	NULL	Novel	SSFSSSFSFSSFFSFFFSFF	NULL	NULL	NULL	TrialProc	Relevant	BlockList	1	1	0	161505	10	161015	1	845	161860
TRSEscan	1161	4	60.002	1	525635101	8/12/2010	18:35:08	1	BlockProc	SessionList	2	2	1	19	NULL	NULL	NULL	NULL	19	2	19	Scenes	NULL	NULL	NULL	Both	2	2390	0	168905	10	166615	3	NULL	NULL	scene/s_402.bmp	NULL	NULL	NULL	NULL	NULL	NULL	Repeat	SSFSSSFSFSSFFSFFFSFF	NULL	NULL	NULL	TrialProc	Relevant	BlockList	1	2	0	166505	10	166015	2	925	166940
TRSEscan	1161	4	60.002	1	525635101	8/12/2010	18:35:08	1	BlockProc	SessionList	2	2	1	20	NULL	NULL	NULL	NULL	20	2	20	Faces	NULL	NULL	NULL	Both	1	4390	0	173905	10	169615	1	NULL	NULL	face/m_050.bmp	NULL	NULL	NULL	NULL	NULL	NULL	Novel	SSFSSSFSFSSFFSFFFSFF	NULL	NULL	NULL	TrialProc	Relevant	BlockList	1	1	0	169505	10	169015	1	741	169756
TRSEscan	1161	4	60.002	1	525635101	8/12/2010	18:35:08	1	BlockProc	SessionList	2	2	1	21	NULL	NULL	NULL	NULL	21	2	21	Faces	NULL	NULL	NULL	Both	2	6390	0	180905	10	174615	0	NULL	NULL	face/m_050.bmp	NULL	NULL	NULL	NULL	NULL	NULL	Repeat	SSFSSSFSFSSFFSFFFSFF	NULL	NULL	NULL	TrialProc	Relevant	BlockList	1	2	0	174505	10	174015	2	845	174860
TRSEscan	1161	4	60.002	1	525635101	8/12/2010	18:35:08	1	BlockProc	SessionList	2	2	1	22	NULL	NULL	NULL	NULL	22	2	22		NULL	NULL	NULL	Both			NULL	NULL	NULL	NULL		195904	194014		NULL	NULL	NULL	NULL	NULL	NULL			NULL	NULL	NULL	FeedbackProc		BlockList	NULL	NULL	NULL	NULL	NULL	NULL	NULL	NULL	NULL
TRSEscan	1161	4	60.002	1	525635101	8/12/2010	18:35:08	2	BlockProc	SessionList	2	2	2	1	-999999	200427	10	196014	1	3	23		1	2	700	Faces			NULL	NULL	NULL	NULL		NULL	NULL		214723	16	202148	0	215721	214731			0	217621	215731	InstrProc		BlockList	NULL	NULL	NULL	NULL	NULL	NULL	NULL	NULL	NULL
TRSEscan	1161	4	60.002	1	525635101	8/12/2010	18:35:08	2	BlockProc	SessionList	2	2	2	2	NULL	NULL	NULL	NULL	2	3	24	Scenes	NULL	NULL	NULL	Faces	1	2390	0	220621	10	218331	0	NULL	NULL	scene/s_182.bmp	NULL	NULL	NULL	NULL	NULL	NULL	Novel	SSFSSSFSFSSFFSFFFSFF	NULL	NULL	NULL	TrialProc	Irrelevant	BlockList	1	1	0	218221	10	217731	1	808	218539
TRSEscan	1161	4	60.002	1	525635101	8/12/2010	18:35:08	2	BlockProc	SessionList	2	2	2	3	NULL	NULL	NULL	NULL	3	3	25	Scenes	NULL	NULL	NULL	Faces	1	4390	0	225620	9	221330	0	NULL	NULL	scene/s_182.bmp	NULL	NULL	NULL	NULL	NULL	NULL	Repeat	SSFSSSFSFSSFFSFFFSFF	NULL	NULL	NULL	TrialProc	Irrelevant	BlockList	1	1	0	221221	10	220731	1	416	221147
TRSEscan	1161	4	60.002	1	525635101	8/12/2010	18:35:08	2	BlockProc	SessionList	2	2	2	4	NULL	NULL	NULL	NULL	4	3	26	Faces	NULL	NULL	NULL	Faces	1	6390	0	232620	10	226330	2	NULL	NULL	face/f_022.bmp	NULL	NULL	NULL	NULL	NULL	NULL	Novel	SSFSSSFSFSSFFSFFFSFF	NULL	NULL	NULL	TrialProc	Relevant	BlockList	1	1	0	226220	10	225730	1	617	226347
TRSEscan	1161	4	60.002	1	525635101	8/12/2010	18:35:08	2	BlockProc	SessionList	2	2	2	5	NULL	NULL	NULL	NULL	5	3	27	Scenes	NULL	NULL	NULL	Faces	1	4390	0	237620	10	233330	1	NULL	NULL	scene/s_182.bmp	NULL	NULL	NULL	NULL	NULL	NULL	Repeat	SSFSSSFSFSSFFSFFFSFF	NULL	NULL	NULL	TrialProc	Irrelevant	BlockList	1	1	0	233220	10	232730	1	664	233394
TRSEscan	1161	4	60.002	1	525635101	8/12/2010	18:35:08	2	BlockProc	SessionList	2	2	2	6	NULL	NULL	NULL	NULL	6	3	28	Scenes	NULL	NULL	NULL	Faces	1	2390	0	240620	10	238330	0	NULL	NULL	scene/s_328.bmp	NULL	NULL	NULL	NULL	NULL	NULL	Novel	SSFSSSFSFSSFFSFFFSFF	NULL	NULL	NULL	TrialProc	Irrelevant	BlockList	1	1	0	238220	10	237730	1	832	238562
TRSEscan	1161	4	60.002	1	525635101	8/12/2010	18:35:08	2	BlockProc	SessionList	2	2	2	7	NULL	NULL	NULL	NULL	7	3	29	Scenes	NULL	NULL	NULL	Faces	1	4390	0	245620	10	241330	0	NULL	NULL	scene/s_380.bmp	NULL	NULL	NULL	NULL	NULL	NULL	Novel	SSFSSSFSFSSFFSFFFSFF	NULL	NULL	NULL	TrialProc	Irrelevant	BlockList	1	1	0	241220	10	240730	1	664	241394
TRSEscan	1161	4	60.002	1	525635101	8/12/2010	18:35:08	2	BlockProc	SessionList	2	2	2	8	NULL	NULL	NULL	NULL	8	3	30	Faces	NULL	NULL	NULL	Faces	2	2390	0	248620	10	246330	3	NULL	NULL	face/f_022.bmp	NULL	NULL	NULL	NULL	NULL	NULL	Repeat	SSFSSSFSFSSFFSFFFSFF	NULL	NULL	NULL	TrialProc	Relevant	BlockList	1	2	0	246220	10	245730	2	800	246530
TRSEscan	1161	4	60.002	1	525635101	8/12/2010	18:35:08	2	BlockProc	SessionList	2	2	2	9	NULL	NULL	NULL	NULL	9	3	31	Scenes	NULL	NULL	NULL	Faces	1	6390	0	255620	10	249330	1	NULL	NULL	scene/s_380.bmp	NULL	NULL	NULL	NULL	NULL	NULL	Repeat	SSFSSSFSFSSFFSFFFSFF	NULL	NULL	NULL	TrialProc	Irrelevant	BlockList	1	1	0	249220	10	248730	1	352	249082
TRSEscan	1161	4	60.002	1	525635101	8/12/2010	18:35:08	2	BlockProc	SessionList	2	2	2	10	NULL	NULL	NULL	NULL	10	3	32	Faces	NULL	NULL	NULL	Faces	2	4390	0	260620	10	256330	1	NULL	NULL	face/f_022.bmp	NULL	NULL	NULL	NULL	NULL	NULL	Repeat	SSFSSSFSFSSFFSFFFSFF	NULL	NULL	NULL	TrialProc	Relevant	BlockList	1	2	0	256220	10	255730	2	600	256330
TRSEscan	1161	4	60.002	1	525635101	8/12/2010	18:35:08	2	BlockProc	SessionList	2	2	2	11	NULL	NULL	NULL	NULL	11	3	33	Scenes	NULL	NULL	NULL	Faces	1	6390	0	267619	9	261329	1	NULL	NULL	scene/s_368.bmp	NULL	NULL	NULL	NULL	NULL	NULL	Novel	SSFSSSFSFSSFFSFFFSFF	NULL	NULL	NULL	TrialProc	Irrelevant	BlockList	1	1	0	261220	10	260730	1	448	261178
TRSEscan	1161	4	60.002	1	525635101	8/12/2010	18:35:08	2	BlockProc	SessionList	2	2	2	12	NULL	NULL	NULL	NULL	12	3	34	Scenes	NULL	NULL	NULL	Faces	1	2390	0	270619	10	268329	0	NULL	NULL	scene/s_015.bmp	NULL	NULL	NULL	NULL	NULL	NULL	Novel	SSFSSSFSFSSFFSFFFSFF	NULL	NULL	NULL	TrialProc	Irrelevant	BlockList	1	1	0	268219	10	267729	1	537	268266
