ExperimentName	Subject	Session	Display.RefreshRate	Group	RandomSeed	SessionDate	SessionTime	Block	Procedure[Block]	Running[Block]	SessionList	SessionList.Cycle	SessionList.Sample	Trial	BlockInstr.OffsetDelay	BlockInstr.OffsetTime	BlockInstr.OnsetDelay	BlockInstr.OnsetTime	BlockList	BlockList.Cycle	BlockList.Sample	Category	Challenge.ACC	Challenge.RESP	Challenge.RT	Condition	CorrResp	Delay	DelayFixation.OffsetDelay	DelayFixation.OffsetTime	DelayFixation.OnsetDelay	DelayFixation.OnsetTime	Distractors	Feedback.OffsetTime	Feedback.OnsetTime	Filename	GetReady.OffsetTime	GetReady.OnsetDelay	GetReady.OnsetTime	Go.OffsetDelay	Go.OffsetTime	Go.OnsetTime	Novelty	Permutation	PostGoFixation.OffsetDelay	PostGoFixation.OffsetTime	PostGoFixation.OnsetTime	Procedure[Trial]	Relevance	Running[Trial]	Stim.ACC	Stim.CRESP	Stim.OffsetDelay	Stim.OffsetTime	Stim.OnsetDelay	Stim.OnsetTime	Stim.RESP	Stim.RT	Stim.RTTime
TRSEscan	1181	1	60.001	1	143361807	1/10/2011	17:54:05	1	BlockProc	SessionList	2	1	2	1	-999999	81158	1	61783	1	2	1		1	2	2153	Faces			NULL	NULL	NULL	NULL		NULL	NULL		95070	1	84333	0	96072	95082			0	97972	96082	InstrProc		BlockList	NULL	NULL	NULL	NULL	NULL	NULL	NULL	NULL	NULL
TRSEscan	1181	1	60.001	1	143361807	1/10/2011	17:54:05	1	BlockProc	SessionList	2	1	2	2	NULL	NULL	NULL	NULL	2	2	2	Scenes	NULL	NULL	NULL	Faces	1	4390	0	102972	10	98682	0	NULL	NULL	scene/s_364.bmp	NULL	NULL	NULL	NULL	NULL	NULL	Novel	SFFSFSSSFSSFSSFFFSFF	NULL	NULL	NULL	TrialProc	Irrelevant	BlockList	1	1	0	98572	10	98082	1	1203	99285
TRSEscan	1181	1	60.001	1	143361807	1/10/2011	17:54:05	1	BlockProc	SessionList	2	1	2	3	NULL	NULL	NULL	NULL	3	2	3	Faces	NULL	NULL	NULL	Faces	1	2390	0	105972	10	103682	1	NULL	NULL	face/m_120.bmp	NULL	NULL	NULL	NULL	NULL	NULL	Novel	SFFSFSSSFSSFSSFFFSFF	NULL	NULL	NULL	TrialProc	Relevant	BlockList	1	1	0	103572	10	103082	1	747	103829
TRSEscan	1181	1	60.001	1	143361807	1/10/2011	17:54:05	1	BlockProc	SessionList	2	1	2	4	NULL	NULL	NULL	NULL	4	2	4	Faces	NULL	NULL	NULL	Faces	1	2390	0	108972	10	106682	0	NULL	NULL	face/m_014.bmp	NULL	NULL	NULL	NULL	NULL	NULL	Novel	SFFSFSSSFSSFSSFFFSFF	NULL	NULL	NULL	TrialProc	Relevant	BlockList	1	1	0	106572	10	106082	1	867	106949
TRSEscan	1181	1	60.001	1	143361807	1/10/2011	17:54:05	1	BlockProc	SessionList	2	1	2	5	NULL	NULL	NULL	NULL	5	2	5	Scenes	NULL	NULL	NULL	Faces	1	4390	0	113971	10	109681	2	NULL	NULL	scene/s_200.bmp	NULL	NULL	NULL	NULL	NULL	NULL	Novel	SFFSFSSSFSSFSSFFFSFF	NULL	NULL	NULL	TrialProc	Irrelevant	BlockList	1	1	0	109571	9	109081	1	804	109885
TRSEscan	1181	1	60.001	1	143361807	1/10/2011	17:54:05	1	BlockProc	SessionList	2	1	2	6	NULL	NULL	NULL	NULL	6	2	6	Faces	NULL	NULL	NULL	Faces	2	6390	0	120971	10	114681	1	NULL	NULL	face/m_014.bmp	NULL	NULL	NULL	NULL	NULL	NULL	Repeat	SFFSFSSSFSSFSSFFFSFF	NULL	NULL	NULL	TrialProc	Relevant	BlockList	1	2	0	114571	10	114081	2	1276	115357
TRSEscan	1181	1	60.001	1	143361807	1/10/2011	17:54:05	1	BlockProc	SessionList	2	1	2	7	NULL	NULL	NULL	NULL	7	2	7	Scenes	NULL	NULL	NULL	Faces	1	6390	0	127971	10	121681	1	NULL	NULL	scene/s_200.bmp	NULL	NULL	NULL	NULL	NULL	NULL	Repeat	SFFSFSSSFSSFSSFFFSFF	NULL	NULL	NULL	TrialProc	Irrelevant	BlockList	1	1	0	121571	10	121081	1	724	121805
TRSEscan	1181	1	60.001	1	143361807	1/10/2011	17:54:05	1	BlockProc	SessionList	2	1	2	8	NULL	NULL	NULL	NULL	8	2	8	Scenes	NULL	NULL	NULL	Faces	1	4390	0	132971	10	128681	0	NULL	NULL	scene/s_004.bmp	NULL	NULL	NULL	NULL	NULL	NULL	Novel	SFFSFSSSFSSFSSFFFSFF	NULL	NULL	NULL	TrialProc	Irrelevant	BlockList	1	1	0	128571	10	128081	1	700	128781
TRSEscan	1181	1	60.001	1	143361807	1/10/2011	17:54:05	1	BlockProc	SessionList	2	1	2	9	NULL	NULL	NULL	NULL	9	2	9	Scenes	NULL	NULL	NULL	Faces	1	2390	0	135971	10	133681	0	NULL	NULL	scene/s_004.bmp	NULL	NULL	NULL	NULL	NULL	NULL	Repeat	SFFSFSSSFSSFSSFFFSFF	NULL	NULL	NULL	TrialProc	Irrelevant	BlockList	1	1	0	133571	10	133081	1	612	133693
TRSEscan	1181	1	60.001	1	143361807	1/10/2011	17:54:05	1	BlockProc	SessionList	2	1	2	10	NULL	NULL	NULL	NULL	10	2	10	Faces	NULL	NULL	NULL	Faces	1	4390	0	140971	10	136681	3	NULL	NULL	face/f_038.bmp	NULL	NULL	NULL	NULL	NULL	NULL	Novel	SFFSFSSSFSSFSSFFFSFF	NULL	NULL	NULL	TrialProc	Relevant	BlockList	1	1	0	136571	10	136081	1	1028	137109
TRSEscan	1181	1	60.001	1	143361807	1/10/2011	17:54:05	1	BlockProc	SessionList	2	1	2	11	NULL	NULL	NULL	NULL	11	2	11	Scenes	NULL	NULL	NULL	Faces	1	6390	0	147971	10	141681	1	NULL	NULL	scene/s_004.bmp	NULL	NULL	NULL	NULL	NULL	NULL	Repeat	SFFSFSSSFSSFSSFFFSFF	NULL	NULL	NULL	TrialProc	Irrelevant	BlockList	1	1	0	141571	10	141081	1	804	141885
TRSEscan	1181	1	60.001	1	143361807	1/10/2011	17:54:05	1	BlockProc	SessionList	2	1	2	12	NULL	NULL	NULL	NULL	12	2	12	Scenes	NULL	NULL	NULL	Faces	1	2390	0	150971	10	148681	0	NULL	NULL	scene/s_020.bmp	NULL	NULL	NULL	NULL	NULL	NULL	Novel	SFFSFSSSFSSFSSFFFSFF	NULL	NULL	NULL	TrialProc	Irrelevant	BlockList	1	1	0	148571	10	148081	1	668	148749
TRSEscan	1181	1	60.001	1	143361807	1/10/2011	17:54:05	1	BlockProc	SessionList	2	1	2	13	NULL	NULL	NULL	NULL	13	2	13	Faces	NULL	NULL	NULL	Faces	2	4390	0	155971	10	151681	2	NULL	NULL	face/f_038.bmp	NULL	NULL	NULL	NULL	NULL	NULL	Repeat	SFFSFSSSFSSFSSFFFSFF	NULL	NULL	NULL	TrialProc	Relevant	BlockList	1	2	0	151571	10	151081	2	1164	152245
TRSEscan	1181	1	60.001	1	143361807	1/10/2011	17:54:05	1	BlockProc	SessionList	2	1	2	14	NULL	NULL	NULL	NULL	14	2	14	Scenes	NULL	NULL	NULL	Faces	1	2390	0	158971	10	156681	1	NULL	NULL	scene/s_020.bmp	NULL	NULL	NULL	NULL	NULL	NULL	Repeat	SFFSFSSSFSSFSSFFFSFF	NULL	NULL	NULL	TrialProc	Irrelevant	BlockList	1	1	0	156571	10	156081	1	1060	157141
TRSEscan	1181	1	60.001	1	143361807	1/10/2011	17:54:05	1	BlockProc	SessionList	2	1	2	15	NULL	NULL	NULL	NULL	15	2	15	Scenes	NULL	NULL	NULL	Faces	1	6390	0	165971	10	159681	0	NULL	NULL	scene/s_442.bmp	NULL	NULL	NULL	NULL	NULL	NULL	Novel	SFFSFSSSFSSFSSFFFSFF	NULL	NULL	NULL	TrialProc	Irrelevant	BlockList	1	1	0	159571	10	159081	1	684	159765
TRSEscan	1181	1	60.001	1	143361807	1/10/2011	17:54:05	1	BlockProc	SessionList	2	1	2	16	NULL	NULL	NULL	NULL	16	2	16	Faces	NULL	NULL	NULL	Faces	2	6390	0	172971	10	166681	2	NULL	NULL	face/f_038.bmp	NULL	NULL	NULL	NULL	NULL	NULL	Repeat	SFFSFSSSFSSFSSFFFSFF	NULL	NULL	NULL	TrialProc	Relevant	BlockList	1	2	0	166571	10	166081	2	803	166884
TRSEscan	1181	1	60.001	1	143361807	1/10/2011	17:54:05	1	BlockProc	SessionList	2	1	2	17	NULL	NULL	NULL	NULL	17	2	17	Faces	NULL	NULL	NULL	Faces	1	2390	0	175971	10	173681	0	NULL	NULL	face/f_012.bmp	NULL	NULL	NULL	NULL	NULL	NULL	Novel	SFFSFSSSFSSFSSFFFSFF	NULL	NULL	NULL	TrialProc	Relevant	BlockList	1	1	0	173571	10	173081	1	1075	174156
TRSEscan	1181	1	60.001	1	143361807	1/10/2011	17:54:05	1	BlockProc	SessionList	2	1	2	18	NULL	NULL	NULL	NULL	18	2	18	Faces	NULL	NULL	NULL	Faces	2	4390	0	180971	10	176681	0	NULL	NULL	face/f_012.bmp	NULL	NULL	NULL	NULL	NULL	NULL	Repeat	SFFSFSSSFSSFSSFFFSFF	NULL	NULL	NULL	TrialProc	Relevant	BlockList	1	2	0	176571	10	176081	2	1115	177196
TRSEscan	1181	1	60.001	1	143361807	1/10/2011	17:54:05	1	BlockProc	SessionList	2	1	2	19	NULL	NULL	NULL	NULL	19	2	19	Scenes	NULL	NULL	NULL	Faces	1	2390	0	183970	10	181680	3	NULL	NULL	scene/s_404.bmp	NULL	NULL	NULL	NULL	NULL	NULL	Novel	SFFSFSSSFSSFSSFFFSFF	NULL	NULL	NULL	TrialProc	Irrelevant	BlockList	1	1	0	181570	9	181080	1	836	181916
TRSEscan	1181	1	60.001	1	143361807	1/10/2011	17:54:05	1	BlockProc	SessionList	2	1	2	20	NULL	NULL	NULL	NULL	20	2	20	Faces	NULL	NULL	NULL	Faces	1	6390	0	190970	10	184680	1	NULL	NULL	face/f_030.bmp	NULL	NULL	NULL	NULL	NULL	NULL	Novel	SFFSFSSSFSSFSSFFFSFF	NULL	NULL	NULL	TrialProc	Relevant	BlockList	1	1	0	184570	10	184080	1	1076	185156
TRSEscan	1181	1	60.001	1	143361807	1/10/2011	17:54:05	1	BlockProc	SessionList	2	1	2	21	NULL	NULL	NULL	NULL	21	2	21	Faces	NULL	NULL	NULL	Faces	1	4390	0	195970	10	191680	0	NULL	NULL	face/m_116.bmp	NULL	NULL	NULL	NULL	NULL	NULL	Novel	SFFSFSSSFSSFSSFFFSFF	NULL	NULL	NULL	TrialProc	Relevant	BlockList	1	1	0	191570	10	191080	1	924	192004
TRSEscan	1181	1	60.001	1	143361807	1/10/2011	17:54:05	1	BlockProc	SessionList	2	1	2	22	NULL	NULL	NULL	NULL	22	2	22		NULL	NULL	NULL	Faces			NULL	NULL	NULL	NULL		210970	209080		NULL	NULL	NULL	NULL	NULL	NULL			NULL	NULL	NULL	FeedbackProc		BlockList	NULL	NULL	NULL	NULL	NULL	NULL	NULL	NULL	NULL
TRSEscan	1181	1	60.001	1	143361807	1/10/2011	17:54:05	2	BlockProc	SessionList	2	1	3	1	-999999	217580	10	211080	1	3	23		1	2	2111	Scenes			NULL	NULL	NULL	NULL		NULL	NULL		230780	1	220698	0	231770	230780			0	233670	231780	InstrProc		BlockList	NULL	NULL	NULL	NULL	NULL	NULL	NULL	NULL	NULL
TRSEscan	1181	1	60.001	1	143361807	1/10/2011	17:54:05	2	BlockProc	SessionList	2	1	3	2	NULL	NULL	NULL	NULL	2	3	24	Scenes	NULL	NULL	NULL	Scenes	1	4390	0	238670	10	234380	0	NULL	NULL	scene/s_325.bmp	NULL	NULL	NULL	NULL	NULL	NULL	Novel	SFFSFSSSFSSFSSFFFSFF	NULL	NULL	NULL	TrialProc	Relevant	BlockList	1	1	0	234270	10	233780	1	1015	234795
TRSEscan	1181	1	60.001	1	143361807	1/10/2011	17:54:05	2	BlockProc	SessionList	2	1	3	3	NULL	NULL	NULL	NULL	3	3	25	Faces	NULL	NULL	NULL	Scenes	1	2390	0	241670	10	239380	1	NULL	NULL	face/f_114.bmp	NULL	NULL	NULL	NULL	NULL	NULL	Novel	SFFSFSSSFSSFSSFFFSFF	NULL	NULL	NULL	TrialProc	Irrelevant	BlockList	1	1	0	239270	10	238780	1	1295	240075
TRSEscan	1181	1	60.001	1	143361807	1/10/2011	17:54:05	2	BlockProc	SessionList	2	1	3	4	NULL	NULL	NULL	NULL	4	3	26	Faces	NULL	NULL	NULL	Scenes	1	2390	0	244670	10	242380	0	NULL	NULL	face/f_036.bmp	NULL	NULL	NULL	NULL	NULL	NULL	Novel	SFFSFSSSFSSFSSFFFSFF	NULL	NULL	NULL	TrialProc	Irrelevant	BlockList	1	1	0	242270	10	241780	1	647	242427
TRSEscan	1181	1	60.001	1	143361807	1/10/2011	17:54:05	2	BlockProc	SessionList	2	1	3	5	NULL	NULL	NULL	NULL	5	3	27	Scenes	NULL	NULL	NULL	Scenes	1	4390	0	249670	10	245380	2	NULL	NULL	scene/s_189.bmp	NULL	NULL	NULL	NULL	NULL	NULL	Novel	SFFSFSSSFSSFSSFFFSFF	NULL	NULL	NULL	TrialProc	Relevant	BlockList	1	1	0	245270	10	244780	1	807	245587
TRSEscan	1181	1	60.001	1	143361807	1/10/2011	17:54:05	2	BlockProc	SessionList	2	1	3	6	NULL	NULL	NULL	NULL	6	3	28	Faces	NULL	NULL	NULL	Scenes	1	6390	0	256670	10	250380	1	NULL	NULL	face/f_036.bmp	NULL	NULL	NULL	NULL	NULL	NULL	Repeat	SFFSFSSSFSSFSSFFFSFF	NULL	NULL	NULL	TrialProc	Irrelevant	BlockList	1	1	0	250270	10	249780	1	791	250571
TRSEscan	1181	1	60.001	1	143361807	1/10/2011	17:54:05	2	BlockProc	SessionList	2	1	3	7	NULL	NULL	NULL	NULL	7	3	29	Scenes	NULL	NULL	NULL	Scenes	2	6390	0	263669	10	257379	1	NULL	NULL	scene/s_189.bmp	NULL	NULL	NULL	NULL	NULL	NULL	Repeat	SFFSFSSSFSSFSSFFFSFF	NULL	NULL	NULL	TrialProc	Relevant	BlockList	1	2	0	257269	9	256779	2	1352	258131
TRSEscan	1181	1	60.001	1	143361807	1/10/2011	17:54:05	2	BlockProc	SessionList	2	1	3	8	NULL	NULL	NULL	NULL	8	3	30	Scenes	NULL	NULL	NULL	Scenes	1	4390	0	268669	10	264379	0	NULL	NULL	scene/s_409.bmp	NULL	NULL	NULL	NULL	NULL	NULL	Novel	SFFSFSSSFSSFSSFFFSFF	NULL	NULL	NULL	TrialProc	Relevant	BlockList	1	1	0	264269	10	263779	1	1272	265051
TRSEscan	1181	1	60.001	1	143361807	1/10/2011	17:54:05	2	BlockProc	SessionList	2	1	3	9	NULL	NULL	NULL	NULL	9	3	31	Scenes	NULL	NULL	NULL	Scenes	2	2390	0	271669	10	269379	0	NULL	NULL	scene/s_409.bmp	NULL	NULL	NULL	NULL	NULL	NULL	Repeat	SFFSFSSSFSSFSSFFFSFF	NULL	NULL	NULL	TrialProc	Relevant	BlockList	1	2	0	269269	10	268779	2	1000	269779
TRSEscan	1181	1	60.001	1	143361807	1/10/2011	17:54:05	2	BlockProc	SessionList	2	1	3	10	NULL	NULL	NULL	NULL	10	3	32	Faces	NULL	NULL	NULL	Scenes	1	4390	0	276669	10	272379	3	NULL	NULL	face/f_112.bmp	NULL	NULL	NULL	NULL	NULL	NULL	Novel	SFFSFSSSFSSFSSFFFSFF	NULL	NULL	NULL	TrialProc	Irrelevant	BlockList	1	1	0	272269	10	271779	1	1624	273403
TRSEscan	1181	1	60.001	1	143361807	1/10/2011	17:54:05	2	BlockProc	SessionList	2	1	3	11	NULL	NULL	NULL	NULL	11	3	33	Scenes	NULL	NULL	NULL	Scenes	2	6390	0	283669	10	277379	1	NULL	NULL	scene/s_409.bmp	NULL	NULL	NULL	NULL	NULL	NULL	Repeat	SFFSFSSSFSSFSSFFFSFF	NULL	NULL	NULL	TrialProc	Relevant	BlockList	1	2	0	277269	10	276779	2	976	277755
TRSEscan	1181	1	60.001	1	143361807	1/10/2011	17:54:05	2	BlockProc	SessionList	2	1	3	12	NULL	NULL	NULL	NULL	12	3	34	Scenes	NULL	NULL	NULL	Scenes	1	2390	0	286669	10	284379	0	NULL	NULL	scene/s_371.bmp	NULL	NULL	NULL	NULL	NULL	NULL	Novel	SFFSFSSSFSSFSSFFFSFF	NULL	NULL	NULL	TrialProc	Relevant	BlockList	1	1	0	284269	10	283779	1	1168	284947
TRSEscan	1181	1	60.001	1	143361807	1/10/2011	17:54:05	2	BlockProc	SessionList	2	1	3	13	NULL	NULL	NULL	NULL	13	3	35	Faces	NULL	NULL	NULL	Scenes	1	4390	0	291669	10	287379	2	NULL	NULL	face/f_112.bmp	NULL	NULL	NULL	NULL	NULL	NULL	Repeat	SFFSFSSSFSSFSSFFFSFF	NULL	NULL	NULL	TrialProc	Irrelevant	BlockList	1	1	0	287269	10	286779	1	984	287763
TRSEscan	1181	1	60.001	1	143361807	1/10/2011	17:54:05	2	BlockProc	SessionList	2	1	3	14	NULL	NULL	NULL	NULL	14	3	36	Scenes	NULL	NULL	NULL	Scenes	2	2390	0	294669	10	292379	1	NULL	NULL	scene/s_371.bmp	NULL	NULL	NULL	NULL	NULL	NULL	Repeat	SFFSFSSSFSSFSSFFFSFF	NULL	NULL	NULL	TrialProc	Relevant	BlockList	0	2	0	292269	10	291779		0	0
TRSEscan	1181	1	60.001	1	143361807	1/10/2011	17:54:05	2	BlockProc	SessionList	2	1	3	15	NULL	NULL	NULL	NULL	15	3	37	Scenes	NULL	NULL	NULL	Scenes	1	6390	0	301669	10	295379	0	NULL	NULL	scene/s_136.bmp	NULL	NULL	NULL	NULL	NULL	NULL	Novel	SFFSFSSSFSSFSSFFFSFF	NULL	NULL	NULL	TrialProc	Relevant	BlockList	1	1	0	295269	10	294779	1	1160	295939
TRSEscan	1181	1	60.001	1	143361807	1/10/2011	17:54:05	2	BlockProc	SessionList	2	1	3	16	NULL	NULL	NULL	NULL	16	3	38	Faces	NULL	NULL	NULL	Scenes	1	6390	0	308669	10	302379	2	NULL	NULL	face/f_112.bmp	NULL	NULL	NULL	NULL	NULL	NULL	Repeat	SFFSFSSSFSSFSSFFFSFF	NULL	NULL	NULL	TrialProc	Irrelevant	BlockList	1	1	0	302269	10	301779	1	704	302483
TRSEscan	1181	1	60.001	1	143361807	1/10/2011	17:54:05	2	BlockProc	SessionList	2	1	3	17	NULL	NULL	NULL	NULL	17	3	39	Faces	NULL	NULL	NULL	Scenes	1	2390	0	311669	10	309379	0	NULL	NULL	face/m_135.bmp	NULL	NULL	NULL	NULL	NULL	NULL	Novel	SFFSFSSSFSSFSSFFFSFF	NULL	NULL	NULL	TrialProc	Irrelevant	BlockList	1	1	0	309269	10	308779	1	904	309683
TRSEscan	1181	1	60.001	1	143361807	1/10/2011	17:54:05	2	BlockProc	SessionList	2	1	3	18	NULL	NULL	NULL	NULL	18	3	40	Faces	NULL	NULL	NULL	Scenes	1	4390	0	316669	10	312379	0	NULL	NULL	face/m_135.bmp	NULL	NULL	NULL	NULL	NULL	NULL	Repeat	SFFSFSSSFSSFSSFFFSFF	NULL	NULL	NULL	TrialProc	Irrelevant	BlockList	1	1	0	312269	10	311779	1	615	312394
TRSEscan	1181	1	60.001	1	143361807	1/10/2011	17:54:05	2	BlockProc	SessionList	2	1	3	19	NULL	NULL	NULL	NULL	19	3	41	Scenes	NULL	NULL	NULL	Scenes	1	2390	0	319669	10	317379	3	NULL	NULL	scene/s_378.bmp	NULL	NULL	NULL	NULL	NULL	NULL	Novel	SFFSFSSSFSSFSSFFFSFF	NULL	NULL	NULL	TrialProc	Relevant	BlockList	1	1	0	317269	10	316779	1	927	317706
TRSEscan	1181	1	60.001	1	143361807	1/10/2011	17:54:05	2	BlockProc	SessionList	2	1	3	20	NULL	NULL	NULL	NULL	20	3	42	Faces	NULL	NULL	NULL	Scenes	1	6390	0	326669	10	320379	1	NULL	NULL	face/m_053.bmp	NULL	NULL	NULL	NULL	NULL	NULL	Novel	SFFSFSSSFSSFSSFFFSFF	NULL	NULL	NULL	TrialProc	Irrelevant	BlockList	1	1	0	320269	10	319779	1	727	320506
TRSEscan	1181	1	60.001	1	143361807	1/10/2011	17:54:05	2	BlockProc	SessionList	2	1	3	21	NULL	NULL	NULL	NULL	21	3	43	Faces	NULL	NULL	NULL	Scenes	1	4390	0	331668	9	327378	0	NULL	NULL	face/f_145.bmp	NULL	NULL	NULL	NULL	NULL	NULL	Novel	SFFSFSSSFSSFSSFFFSFF	NULL	NULL	NULL	TrialProc	Irrelevant	BlockList	1	1	0	327269	10	326779	1	583	327362
TRSEscan	1181	1	60.001	1	143361807	1/10/2011	17:54:05	2	BlockProc	SessionList	2	1	3	22	NULL	NULL	NULL	NULL	22	3	44		NULL	NULL	NULL	Scenes			NULL	NULL	NULL	NULL		346668	344778		NULL	NULL	NULL	NULL	NULL	NULL			NULL	NULL	NULL	FeedbackProc		BlockList	NULL	NULL	NULL	NULL	NULL	NULL	NULL	NULL	NULL
TRSEscan	1181	1	60.001	1	143361807	1/10/2011	17:54:05	3	BlockProc	SessionList	2	1	4	1	-999999	354290	10	346778	1	4	45		1	2	1763	Categorize			NULL	NULL	NULL	NULL		NULL	NULL		367682	1	357062	0	368685	367695			0	370585	368695	InstrProc		BlockList	NULL	NULL	NULL	NULL	NULL	NULL	NULL	NULL	NULL
TRSEscan	1181	1	60.001	1	143361807	1/10/2011	17:54:05	3	BlockProc	SessionList	2	1	4	2	NULL	NULL	NULL	NULL	2	4	46	Scenes	NULL	NULL	NULL	Categorize	2	4390	0	375585	10	371295	0	NULL	NULL	scene/s_301.bmp	NULL	NULL	NULL	NULL	NULL	NULL	Novel	SFFSFSSSFSSFSSFFFSFF	NULL	NULL	NULL	TrialProc	Irrelevant	BlockList	1	2	0	371185	10	370695	2	1851	372546
TRSEscan	1181	1	60.001	1	143361807	1/10/2011	17:54:05	3	BlockProc	SessionList	2	1	4	3	NULL	NULL	NULL	NULL	3	4	47	Faces	NULL	NULL	NULL	Categorize	1	2390	0	378585	10	376295	1	NULL	NULL	face/m_055.bmp	NULL	NULL	NULL	NULL	NULL	NULL	Novel	SFFSFSSSFSSFSSFFFSFF	NULL	NULL	NULL	TrialProc	Irrelevant	BlockList	1	1	0	376185	10	375695	1	779	376474
TRSEscan	1181	1	60.001	1	143361807	1/10/2011	17:54:05	3	BlockProc	SessionList	2	1	4	4	NULL	NULL	NULL	NULL	4	4	48	Faces	NULL	NULL	NULL	Categorize	1	2390	0	381584	10	379294	0	NULL	NULL	face/m_129.bmp	NULL	NULL	NULL	NULL	NULL	NULL	Novel	SFFSFSSSFSSFSSFFFSFF	NULL	NULL	NULL	TrialProc	Irrelevant	BlockList	1	1	0	379184	9	378694	1	844	379538
TRSEscan	1181	1	60.001	1	143361807	1/10/2011	17:54:05	3	BlockProc	SessionList	2	1	4	5	NULL	NULL	NULL	NULL	5	4	49	Scenes	NULL	NULL	NULL	Categorize	2	4390	0	386584	10	382294	2	NULL	NULL	scene/s_141.bmp	NULL	NULL	NULL	NULL	NULL	NULL	Novel	SFFSFSSSFSSFSSFFFSFF	NULL	NULL	NULL	TrialProc	Irrelevant	BlockList	1	2	0	382184	10	381694	2	796	382490
TRSEscan	1181	1	60.001	1	143361807	1/10/2011	17:54:05	3	BlockProc	SessionList	2	1	4	6	NULL	NULL	NULL	NULL	6	4	50	Faces	NULL	NULL	NULL	Categorize	1	6390	0	393584	10	387294	1	NULL	NULL	face/m_129.bmp	NULL	NULL	NULL	NULL	NULL	NULL	Repeat	SFFSFSSSFSSFSSFFFSFF	NULL	NULL	NULL	TrialProc	Irrelevant	BlockList	1	1	0	387184	10	386694	1	1203	387897
TRSEscan	1181	1	60.001	1	143361807	1/10/2011	17:54:05	3	BlockProc	SessionList	2	1	4	7	NULL	NULL	NULL	NULL	7	4	51	Scenes	NULL	NULL	NULL	Categorize	2	6390	0	400584	10	394294	1	NULL	NULL	scene/s_141.bmp	NULL	NULL	NULL	NULL	NULL	NULL	Repeat	SFFSFSSSFSSFSSFFFSFF	NULL	NULL	NULL	TrialProc	Irrelevant	BlockList	1	2	0	394184	10	393694	2	955	394649
TRSEscan	1181	1	60.001	1	143361807	1/10/2011	17:54:05	3	BlockProc	SessionList	2	1	4	8	NULL	NULL	NULL	NULL	8	4	52	Scenes	NULL	NULL	NULL	Categorize	2	4390	0	405584	10	401294	0	NULL	NULL	scene/s_264.bmp	NULL	NULL	NULL	NULL	NULL	NULL	Novel	SFFSFSSSFSSFSSFFFSFF	NULL	NULL	NULL	TrialProc	Irrelevant	BlockList	1	2	0	401184	10	400694	2	947	401641
TRSEscan	1181	1	60.001	1	143361807	1/10/2011	17:54:05	3	BlockProc	SessionList	2	1	4	9	NULL	NULL	NULL	NULL	9	4	53	Scenes	NULL	NULL	NULL	Categorize	2	2390	0	408584	10	406294	0	NULL	NULL	scene/s_264.bmp	NULL	NULL	NULL	NULL	NULL	NULL	Repeat	SFFSFSSSFSSFSSFFFSFF	NULL	NULL	NULL	TrialProc	Irrelevant	BlockList	1	2	0	406184	10	405694	2	1203	406897
TRSEscan	1181	1	60.001	1	143361807	1/10/2011	17:54:05	3	BlockProc	SessionList	2	1	4	10	NULL	NULL	NULL	NULL	10	4	54	Faces	NULL	NULL	NULL	Categorize	1	4390	0	413584	10	409294	3	NULL	NULL	face/f_135.bmp	NULL	NULL	NULL	NULL	NULL	NULL	Novel	SFFSFSSSFSSFSSFFFSFF	NULL	NULL	NULL	TrialProc	Irrelevant	BlockList	1	1	0	409184	10	408694	1	851	409545
TRSEscan	1181	1	60.001	1	143361807	1/10/2011	17:54:05	3	BlockProc	SessionList	2	1	4	11	NULL	NULL	NULL	NULL	11	4	55	Scenes	NULL	NULL	NULL	Categorize	2	6390	0	420584	10	414294	1	NULL	NULL	scene/s_264.bmp	NULL	NULL	NULL	NULL	NULL	NULL	Repeat	SFFSFSSSFSSFSSFFFSFF	NULL	NULL	NULL	TrialProc	Irrelevant	BlockList	1	2	0	414184	10	413694	2	883	414577
TRSEscan	1181	1	60.001	1	143361807	1/10/2011	17:54:05	3	BlockProc	SessionList	2	1	4	12	NULL	NULL	NULL	NULL	12	4	56	Scenes	NULL	NULL	NULL	Categorize	2	2390	0	423584	10	421294	0	NULL	NULL	scene/s_063.bmp	NULL	NULL	NULL	NULL	NULL	NULL	Novel	SFFSFSSSFSSFSSFFFSFF	NULL	NULL	NULL	TrialProc	Irrelevant	BlockList	1	2	0	421184	10	420694	2	867	421561
TRSEscan	1181	1	60.001	1	143361807	1/10/2011	17:54:05	3	BlockProc	SessionList	2	1	4	13	NULL	NULL	NULL	NULL	13	4	57	Faces	NULL	NULL	NULL	Categorize	1	4390	0	428584	10	424294	2	NULL	NULL	face/f_135.bmp	NULL	NULL	NULL	NULL	NULL	NULL	Repeat	SFFSFSSSFSSFSSFFFSFF	NULL	NULL	NULL	TrialProc	Irrelevant	BlockList	1	1	0	424184	10	423694	1	635	424329
TRSEscan	1181	1	60.001	1	143361807	1/10/2011	17:54:05	3	BlockProc	SessionList	2	1	4	14	NULL	NULL	NULL	NULL	14	4	58	Scenes	NULL	NULL	NULL	Categorize	2	2390	0	431584	10	429294	1	NULL	NULL	scene/s_063.bmp	NULL	NULL	NULL	NULL	NULL	NULL	Repeat	SFFSFSSSFSSFSSFFFSFF	NULL	NULL	NULL	TrialProc	Irrelevant	BlockList	1	2	0	429184	10	428694	2	827	429521
TRSEscan	1181	1	60.001	1	143361807	1/10/2011	17:54:05	3	BlockProc	SessionList	2	1	4	15	NULL	NULL	NULL	NULL	15	4	59	Scenes	NULL	NULL	NULL	Categorize	2	6390	0	438584	10	432294	0	NULL	NULL	scene/s_439.bmp	NULL	NULL	NULL	NULL	NULL	NULL	Novel	SFFSFSSSFSSFSSFFFSFF	NULL	NULL	NULL	TrialProc	Irrelevant	BlockList	1	2	0	432184	10	431694	2	819	432513
TRSEscan	1181	1	60.001	1	143361807	1/10/2011	17:54:05	3	BlockProc	SessionList	2	1	4	16	NULL	NULL	NULL	NULL	16	4	60	Faces	NULL	NULL	NULL	Categorize	1	6390	0	445584	10	439294	2	NULL	NULL	face/f_135.bmp	NULL	NULL	NULL	NULL	NULL	NULL	Repeat	SFFSFSSSFSSFSSFFFSFF	NULL	NULL	NULL	TrialProc	Irrelevant	BlockList	1	1	0	439184	10	438694	1	723	439417
TRSEscan	1181	1	60.001	1	143361807	1/10/2011	17:54:05	3	BlockProc	SessionList	2	1	4	17	NULL	NULL	NULL	NULL	17	4	61	Faces	NULL	NULL	NULL	Categorize	1	2390	0	448584	10	446294	0	NULL	NULL	face/m_033.bmp	NULL	NULL	NULL	NULL	NULL	NULL	Novel	SFFSFSSSFSSFSSFFFSFF	NULL	NULL	NULL	TrialProc	Irrelevant	BlockList	1	1	0	446184	10	445694	1	843	446537
TRSEscan	1181	1	60.001	1	143361807	1/10/2011	17:54:05	3	BlockProc	SessionList	2	1	4	18	NULL	NULL	NULL	NULL	18	4	62	Faces	NULL	NULL	NULL	Categorize	1	4390	0	453583	9	449293	0	NULL	NULL	face/m_033.bmp	NULL	NULL	NULL	NULL	NULL	NULL	Repeat	SFFSFSSSFSSFSSFFFSFF	NULL	NULL	NULL	TrialProc	Irrelevant	BlockList	1	1	0	449184	10	448694	1	635	449329
TRSEscan	1181	1	60.001	1	143361807	1/10/2011	17:54:05	3	BlockProc	SessionList	2	1	4	19	NULL	NULL	NULL	NULL	19	4	63	Scenes	NULL	NULL	NULL	Categorize	2	2390	0	456583	10	454293	3	NULL	NULL	scene/s_172.bmp	NULL	NULL	NULL	NULL	NULL	NULL	Novel	SFFSFSSSFSSFSSFFFSFF	NULL	NULL	NULL	TrialProc	Irrelevant	BlockList	1	2	0	454183	10	453693	2	796	454489
TRSEscan	1181	1	60.001	1	143361807	1/10/2011	17:54:05	3	BlockProc	SessionList	2	1	4	20	NULL	NULL	NULL	NULL	20	4	64	Faces	NULL	NULL	NULL	Categorize	1	6390	0	463583	10	457293	1	NULL	NULL	face/f_081.bmp	NULL	NULL	NULL	NULL	NULL	NULL	Novel	SFFSFSSSFSSFSSFFFSFF	NULL	NULL	NULL	TrialProc	Irrelevant	BlockList	1	1	0	457183	10	456693	1	1147	457840
TRSEscan	1181	1	60.001	1	143361807	1/10/2011	17:54:05	3	BlockProc	SessionList	2	1	4	21	NULL	NULL	NULL	NULL	21	4	65	Faces	NULL	NULL	NULL	Categorize	1	4390	0	468583	10	464293	0	NULL	NULL	face/m_035.bmp	NULL	NULL	NULL	NULL	NULL	NULL	Novel	SFFSFSSSFSSFSSFFFSFF	NULL	NULL	NULL	TrialProc	Irrelevant	BlockList	1	1	0	464183	10	463693	1	819	464512
TRSEscan	1181	1	60.001	1	143361807	1/10/2011	17:54:05	3	BlockProc	SessionList	2	1	4	22	NULL	NULL	NULL	NULL	22	4	66		NULL	NULL	NULL	Categorize			NULL	NULL	NULL	NULL		483583	481693		NULL	NULL	NULL	NULL	NULL	NULL			NULL	NULL	NULL	FeedbackProc		BlockList	NULL	NULL	NULL	NULL	NULL	NULL	NULL	NULL	NULL
TRSEscan	1181	1	60.001	1	143361807	1/10/2011	17:54:05	4	BlockProc	SessionList	2	1	5	1	-999999	488936	10	483693	1	5	67		1	2	2849	Both			NULL	NULL	NULL	NULL		NULL	NULL		502840	1	492794	0	503833	502843			0	505733	503843	InstrProc		BlockList	NULL	NULL	NULL	NULL	NULL	NULL	NULL	NULL	NULL
TRSEscan	1181	1	60.001	1	143361807	1/10/2011	17:54:05	4	BlockProc	SessionList	2	1	5	2	NULL	NULL	NULL	NULL	2	5	68	Scenes	NULL	NULL	NULL	Both	1	4390	0	510733	10	506443	0	NULL	NULL	scene/s_165.bmp	NULL	NULL	NULL	NULL	NULL	NULL	Novel	SFFSFSSSFSSFSSFFFSFF	NULL	NULL	NULL	TrialProc	Relevant	BlockList	1	1	0	506333	10	505843	1	1149	506992
TRSEscan	1181	1	60.001	1	143361807	1/10/2011	17:54:05	4	BlockProc	SessionList	2	1	5	3	NULL	NULL	NULL	NULL	3	5	69	Faces	NULL	NULL	NULL	Both	1	2390	0	513733	10	511443	1	NULL	NULL	face/f_111.bmp	NULL	NULL	NULL	NULL	NULL	NULL	Novel	SFFSFSSSFSSFSSFFFSFF	NULL	NULL	NULL	TrialProc	Relevant	BlockList	1	1	0	511333	10	510843	1	2437	513280
TRSEscan	1181	1	60.001	1	143361807	1/10/2011	17:54:05	4	BlockProc	SessionList	2	1	5	4	NULL	NULL	NULL	NULL	4	5	70	Faces	NULL	NULL	NULL	Both	1	2390	0	516733	10	514443	0	NULL	NULL	face/f_139.bmp	NULL	NULL	NULL	NULL	NULL	NULL	Novel	SFFSFSSSFSSFSSFFFSFF	NULL	NULL	NULL	TrialProc	Relevant	BlockList	1	1	0	514333	10	513843	1	1637	515480
TRSEscan	1181	1	60.001	1	143361807	1/10/2011	17:54:05	4	BlockProc	SessionList	2	1	5	5	NULL	NULL	NULL	NULL	5	5	71	Scenes	NULL	NULL	NULL	Both	1	4390	0	521733	10	517443	2	NULL	NULL	scene/s_385.bmp	NULL	NULL	NULL	NULL	NULL	NULL	Novel	SFFSFSSSFSSFSSFFFSFF	NULL	NULL	NULL	TrialProc	Relevant	BlockList	1	1	0	517333	10	516843	1	1885	518728
TRSEscan	1181	1	60.001	1	143361807	1/10/2011	17:54:05	4	BlockProc	SessionList	2	1	5	6	NULL	NULL	NULL	NULL	6	5	72	Faces	NULL	NULL	NULL	Both	2	6390	0	528733	10	522443	1	NULL	NULL	face/f_139.bmp	NULL	NULL	NULL	NULL	NULL	NULL	Repeat	SFFSFSSSFSSFSSFFFSFF	NULL	NULL	NULL	TrialProc	Relevant	BlockList	1	2	0	522333	10	521843	2	925	522768
TRSEscan	1181	1	60.001	1	143361807	1/10/2011	17:54:05	4	BlockProc	SessionList	2	1	5	7	NULL	NULL	NULL	NULL	7	5	73	Scenes	NULL	NULL	NULL	Both	2	6390	0	535732	10	529442	1	NULL	NULL	scene/s_385.bmp	NULL	NULL	NULL	NULL	NULL	NULL	Repeat	SFFSFSSSFSSFSSFFFSFF	NULL	NULL	NULL	TrialProc	Relevant	BlockList	1	2	0	529332	9	528842	2	542	529384
TRSEscan	1181	1	60.001	1	143361807	1/10/2011	17:54:05	4	BlockProc	SessionList	2	1	5	8	NULL	NULL	NULL	NULL	8	5	74	Scenes	NULL	NULL	NULL	Both	1	4390	0	540732	10	536442	0	NULL	NULL	scene/s_050.bmp	NULL	NULL	NULL	NULL	NULL	NULL	Novel	SFFSFSSSFSSFSSFFFSFF	NULL	NULL	NULL	TrialProc	Relevant	BlockList	1	1	0	536332	10	535842	1	1069	536911
TRSEscan	1181	1	60.001	1	143361807	1/10/2011	17:54:05	4	BlockProc	SessionList	2	1	5	9	NULL	NULL	NULL	NULL	9	5	75	Scenes	NULL	NULL	NULL	Both	2	2390	0	543732	10	541442	0	NULL	NULL	scene/s_050.bmp	NULL	NULL	NULL	NULL	NULL	NULL	Repeat	SFFSFSSSFSSFSSFFFSFF	NULL	NULL	NULL	TrialProc	Relevant	BlockList	1	2	0	541332	10	540842	2	1477	542319
TRSEscan	1181	1	60.001	1	143361807	1/10/2011	17:54:05	4	BlockProc	SessionList	2	1	5	10	NULL	NULL	NULL	NULL	10	5	76	Faces	NULL	NULL	NULL	Both	1	4390	0	548732	10	544442	3	NULL	NULL	face/f_044.bmp	NULL	NULL	NULL	NULL	NULL	NULL	Novel	SFFSFSSSFSSFSSFFFSFF	NULL	NULL	NULL	TrialProc	Relevant	BlockList	1	1	0	544332	10	543842	1	2093	545935
TRSEscan	1181	1	60.001	1	143361807	1/10/2011	17:54:05	4	BlockProc	SessionList	2	1	5	11	NULL	NULL	NULL	NULL	11	5	77	Scenes	NULL	NULL	NULL	Both	2	6390	0	555732	10	549442	1	NULL	NULL	scene/s_050.bmp	NULL	NULL	NULL	NULL	NULL	NULL	Repeat	SFFSFSSSFSSFSSFFFSFF	NULL	NULL	NULL	TrialProc	Relevant	BlockList	1	2	0	549332	10	548842	2	2685	551527
TRSEscan	1181	1	60.001	1	143361807	1/10/2011	17:54:05	4	BlockProc	SessionList	2	1	5	12	NULL	NULL	NULL	NULL	12	5	78	Scenes	NULL	NULL	NULL	Both	1	2390	0	558732	10	556442	0	NULL	NULL	scene/s_273.bmp	NULL	NULL	NULL	NULL	NULL	NULL	Novel	SFFSFSSSFSSFSSFFFSFF	NULL	NULL	NULL	TrialProc	Relevant	BlockList	1	1	0	556332	10	555842	1	1421	557263
TRSEscan	1181	1	60.001	1	143361807	1/10/2011	17:54:05	4	BlockProc	SessionList	2	1	5	13	NULL	NULL	NULL	NULL	13	5	79	Faces	NULL	NULL	NULL	Both	2	4390	0	563732	10	559442	2	NULL	NULL	face/f_044.bmp	NULL	NULL	NULL	NULL	NULL	NULL	Repeat	SFFSFSSSFSSFSSFFFSFF	NULL	NULL	NULL	TrialProc	Relevant	BlockList	0	2	0	559332	10	558842	1	1669	560511
TRSEscan	1181	1	60.001	1	143361807	1/10/2011	17:54:05	4	BlockProc	SessionList	2	1	5	14	NULL	NULL	NULL	NULL	14	5	80	Scenes	NULL	NULL	NULL	Both	2	2390	0	566732	10	564442	1	NULL	NULL	scene/s_273.bmp	NULL	NULL	NULL	NULL	NULL	NULL	Repeat	SFFSFSSSFSSFSSFFFSFF	NULL	NULL	NULL	TrialProc	Relevant	BlockList	1	2	0	564332	10	563842	2	1501	565343
TRSEscan	1181	1	60.001	1	143361807	1/10/2011	17:54:05	4	BlockProc	SessionList	2	1	5	15	NULL	NULL	NULL	NULL	15	5	81	Scenes	NULL	NULL	NULL	Both	1	6390	0	573732	10	567442	0	NULL	NULL	scene/s_176.bmp	NULL	NULL	NULL	NULL	NULL	NULL	Novel	SFFSFSSSFSSFSSFFFSFF	NULL	NULL	NULL	TrialProc	Relevant	BlockList	1	1	0	567332	10	566842	1	1093	567935
TRSEscan	1181	1	60.001	1	143361807	1/10/2011	17:54:05	4	BlockProc	SessionList	2	1	5	16	NULL	NULL	NULL	NULL	16	5	82	Faces	NULL	NULL	NULL	Both	2	6390	0	580732	10	574442	2	NULL	NULL	face/f_044.bmp	NULL	NULL	NULL	NULL	NULL	NULL	Repeat	SFFSFSSSFSSFSSFFFSFF	NULL	NULL	NULL	TrialProc	Relevant	BlockList	1	2	0	574332	10	573842	2	1397	575239
TRSEscan	1181	1	60.001	1	143361807	1/10/2011	17:54:05	4	BlockProc	SessionList	2	1	5	17	NULL	NULL	NULL	NULL	17	5	83	Faces	NULL	NULL	NULL	Both	1	2390	0	583732	10	581442	0	NULL	NULL	face/m_083.bmp	NULL	NULL	NULL	NULL	NULL	NULL	Novel	SFFSFSSSFSSFSSFFFSFF	NULL	NULL	NULL	TrialProc	Relevant	BlockList	1	1	0	581332	10	580842	1	1645	582487
TRSEscan	1181	1	60.001	1	143361807	1/10/2011	17:54:05	4	BlockProc	SessionList	2	1	5	18	NULL	NULL	NULL	NULL	18	5	84	Faces	NULL	NULL	NULL	Both	2	4390	0	588732	10	584442	0	NULL	NULL	face/m_083.bmp	NULL	NULL	NULL	NULL	NULL	NULL	Repeat	SFFSFSSSFSSFSSFFFSFF	NULL	NULL	NULL	TrialProc	Relevant	BlockList	1	2	0	584332	10	583842	2	2669	586511
TRSEscan	1181	1	60.001	1	143361807	1/10/2011	17:54:05	4	BlockProc	SessionList	2	1	5	19	NULL	NULL	NULL	NULL	19	5	85	Scenes	NULL	NULL	NULL	Both	1	2390	0	591732	10	589442	3	NULL	NULL	scene/s_355.bmp	NULL	NULL	NULL	NULL	NULL	NULL	Novel	SFFSFSSSFSSFSSFFFSFF	NULL	NULL	NULL	TrialProc	Relevant	BlockList	0	1	0	589332	10	588842	2	1517	590359
TRSEscan	1181	1	60.001	1	143361807	1/10/2011	17:54:05	4	BlockProc	SessionList	2	1	5	20	NULL	NULL	NULL	NULL	20	5	86	Faces	NULL	NULL	NULL	Both	1	6390	0	598732	10	592442	1	NULL	NULL	face/f_142.bmp	NULL	NULL	NULL	NULL	NULL	NULL	Novel	SFFSFSSSFSSFSSFFFSFF	NULL	NULL	NULL	TrialProc	Relevant	BlockList	1	1	0	592332	10	591842	1	1245	593087
TRSEscan	1181	1	60.001	1	143361807	1/10/2011	17:54:05	4	BlockProc	SessionList	2	1	5	21	NULL	NULL	NULL	NULL	21	5	87	Faces	NULL	NULL	NULL	Both	1	4390	0	603731	10	599441	0	NULL	NULL	face/m_119.bmp	NULL	NULL	NULL	NULL	NULL	NULL	Novel	SFFSFSSSFSSFSSFFFSFF	NULL	NULL	NULL	TrialProc	Relevant	BlockList	1	1	0	599331	9	598841	1	1182	600023
TRSEscan	1181	1	60.001	1	143361807	1/10/2011	17:54:05	4	BlockProc	SessionList	2	1	5	22	NULL	NULL	NULL	NULL	22	5	88		NULL	NULL	NULL	Both			NULL	NULL	NULL	NULL		618731	616841		NULL	NULL	NULL	NULL	NULL	NULL			NULL	NULL	NULL	FeedbackProc		BlockList	NULL	NULL	NULL	NULL	NULL	NULL	NULL	NULL	NULL
TRSEscan	1181	2	60.001	1	1035497239	1/10/2011	18:05:17	1	BlockProc	SessionList	2	2	1	1	-999999	75526	2	65316	1	2	1		1	2	2235	Scenes			NULL	NULL	NULL	NULL		NULL	NULL		89694	1	78782	0	90687	89697			0	92587	90697	InstrProc		BlockList	NULL	NULL	NULL	NULL	NULL	NULL	NULL	NULL	NULL
TRSEscan	1181	2	60.001	1	1035497239	1/10/2011	18:05:17	1	BlockProc	SessionList	2	2	1	2	NULL	NULL	NULL	NULL	2	2	2	Faces	NULL	NULL	NULL	Scenes	1	2390	0	95587	10	93297	0	NULL	NULL	face/m_102.bmp	NULL	NULL	NULL	NULL	NULL	NULL	Novel	FFSFFFSSFSSFSSSFSFFS	NULL	NULL	NULL	TrialProc	Irrelevant	BlockList	1	1	0	93187	10	92697	1	1421	94118
TRSEscan	1181	2	60.001	1	1035497239	1/10/2011	18:05:17	1	BlockProc	SessionList	2	2	1	3	NULL	NULL	NULL	NULL	3	2	3	Faces	NULL	NULL	NULL	Scenes	1	4390	0	100587	10	96297	0	NULL	NULL	face/f_085.bmp	NULL	NULL	NULL	NULL	NULL	NULL	Novel	FFSFFFSSFSSFSSSFSFFS	NULL	NULL	NULL	TrialProc	Irrelevant	BlockList	1	1	0	96187	10	95697	1	789	96486
TRSEscan	1181	2	60.001	1	1035497239	1/10/2011	18:05:17	1	BlockProc	SessionList	2	2	1	4	NULL	NULL	NULL	NULL	4	2	4	Scenes	NULL	NULL	NULL	Scenes	1	6390	0	107587	10	101297	2	NULL	NULL	scene/s_185.bmp	NULL	NULL	NULL	NULL	NULL	NULL	Novel	FFSFFFSSFSSFSSSFSFFS	NULL	NULL	NULL	TrialProc	Relevant	BlockList	1	1	0	101187	10	100697	1	1101	101798
TRSEscan	1181	2	60.001	1	1035497239	1/10/2011	18:05:17	1	BlockProc	SessionList	2	2	1	5	NULL	NULL	NULL	NULL	5	2	5	Faces	NULL	NULL	NULL	Scenes	1	4390	0	112587	10	108297	1	NULL	NULL	face/f_085.bmp	NULL	NULL	NULL	NULL	NULL	NULL	Repeat	FFSFFFSSFSSFSSSFSFFS	NULL	NULL	NULL	TrialProc	Irrelevant	BlockList	1	1	0	108187	10	107697	1	701	108398
TRSEscan	1181	2	60.001	1	1035497239	1/10/2011	18:05:17	1	BlockProc	SessionList	2	2	1	6	NULL	NULL	NULL	NULL	6	2	6	Faces	NULL	NULL	NULL	Scenes	1	2390	0	115587	10	113297	0	NULL	NULL	face/f_085.bmp	NULL	NULL	NULL	NULL	NULL	NULL	Repeat	FFSFFFSSFSSFSSSFSFFS	NULL	NULL	NULL	TrialProc	Irrelevant	BlockList	1	1	0	113187	10	112697	1	796	113493
TRSEscan	1181	2	60.001	1	1035497239	1/10/2011	18:05:17	1	BlockProc	SessionList	2	2	1	7	NULL	NULL	NULL	NULL	7	2	7	Faces	NULL	NULL	NULL	Scenes	1	6390	0	122587	10	116297	0	NULL	NULL	face/m_047.bmp	NULL	NULL	NULL	NULL	NULL	NULL	Novel	FFSFFFSSFSSFSSSFSFFS	NULL	NULL	NULL	TrialProc	Irrelevant	BlockList	1	1	0	116187	10	115697	1	564	116261
TRSEscan	1181	2	60.001	1	1035497239	1/10/2011	18:05:17	1	BlockProc	SessionList	2	2	1	8	NULL	NULL	NULL	NULL	8	2	8	Scenes	NULL	NULL	NULL	Scenes	1	2390	0	125587	10	123297	3	NULL	NULL	scene/s_216.bmp	NULL	NULL	NULL	NULL	NULL	NULL	Novel	FFSFFFSSFSSFSSSFSFFS	NULL	NULL	NULL	TrialProc	Relevant	BlockList	1	1	0	123187	10	122697	1	1172	123869
TRSEscan	1181	2	60.001	1	1035497239	1/10/2011	18:05:17	1	BlockProc	SessionList	2	2	1	9	NULL	NULL	NULL	NULL	9	2	9	Scenes	NULL	NULL	NULL	Scenes	2	4390	0	130587	10	126297	0	NULL	NULL	scene/s_216.bmp	NULL	NULL	NULL	NULL	NULL	NULL	Repeat	FFSFFFSSFSSFSSSFSFFS	NULL	NULL	NULL	TrialProc	Relevant	BlockList	0	2	0	126187	10	125697	1	580	126277
TRSEscan	1181	2	60.001	1	1035497239	1/10/2011	18:05:17	1	BlockProc	SessionList	2	2	1	10	NULL	NULL	NULL	NULL	10	2	10	Faces	NULL	NULL	NULL	Scenes	1	2390	0	133587	10	131297	2	NULL	NULL	face/m_047.bmp	NULL	NULL	NULL	NULL	NULL	NULL	Repeat	FFSFFFSSFSSFSSSFSFFS	NULL	NULL	NULL	TrialProc	Irrelevant	BlockList	1	1	0	131187	10	130697	1	564	131261
TRSEscan	1181	2	60.001	1	1035497239	1/10/2011	18:05:17	1	BlockProc	SessionList	2	2	1	11	NULL	NULL	NULL	NULL	11	2	11	Scenes	NULL	NULL	NULL	Scenes	2	4390	0	138587	10	134297	1	NULL	NULL	scene/s_216.bmp	NULL	NULL	NULL	NULL	NULL	NULL	Repeat	FFSFFFSSFSSFSSSFSFFS	NULL	NULL	NULL	TrialProc	Relevant	BlockList	1	2	0	134187	10	133697	2	708	134405
TRSEscan	1181	2	60.001	1	1035497239	1/10/2011	18:05:17	1	BlockProc	SessionList	2	2	1	12	NULL	NULL	NULL	NULL	12	2	12	Scenes	NULL	NULL	NULL	Scenes	1	6390	0	145587	10	139297	0	NULL	NULL	scene/s_316.bmp	NULL	NULL	NULL	NULL	NULL	NULL	Novel	FFSFFFSSFSSFSSSFSFFS	NULL	NULL	NULL	TrialProc	Relevant	BlockList	1	1	0	139187	10	138697	1	1516	140213
TRSEscan	1181	2	60.001	1	1035497239	1/10/2011	18:05:17	1	BlockProc	SessionList	2	2	1	13	NULL	NULL	NULL	NULL	13	2	13	Faces	NULL	NULL	NULL	Scenes	1	4390	0	150587	10	146297	2	NULL	NULL	face/m_010.bmp	NULL	NULL	NULL	NULL	NULL	NULL	Novel	FFSFFFSSFSSFSSSFSFFS	NULL	NULL	NULL	TrialProc	Irrelevant	BlockList	1	1	0	146187	10	145697	1	700	146397
TRSEscan	1181	2	60.001	1	1035497239	1/10/2011	18:05:17	1	BlockProc	SessionList	2	2	1	14	NULL	NULL	NULL	NULL	14	2	14	Scenes	NULL	NULL	NULL	Scenes	2	2390	0	153587	10	151297	1	NULL	NULL	scene/s_316.bmp	NULL	NULL	NULL	NULL	NULL	NULL	Repeat	FFSFFFSSFSSFSSSFSFFS	NULL	NULL	NULL	TrialProc	Relevant	BlockList	1	2	0	151187	10	150697	2	1492	152189
TRSEscan	1181	2	60.001	1	1035497239	1/10/2011	18:05:17	1	BlockProc	SessionList	2	2	1	15	NULL	NULL	NULL	NULL	15	2	15	Scenes	NULL	NULL	NULL	Scenes	1	6390	0	160587	10	154297	0	NULL	NULL	scene/s_049.bmp	NULL	NULL	NULL	NULL	NULL	NULL	Novel	FFSFFFSSFSSFSSSFSFFS	NULL	NULL	NULL	TrialProc	Relevant	BlockList	1	1	0	154187	10	153697	1	996	154693
TRSEscan	1181	2	60.001	1	1035497239	1/10/2011	18:05:17	1	BlockProc	SessionList	2	2	1	16	NULL	NULL	NULL	NULL	16	2	16	Scenes	NULL	NULL	NULL	Scenes	1	4390	0	165586	10	161296	0	NULL	NULL	scene/s_166.bmp	NULL	NULL	NULL	NULL	NULL	NULL	Novel	FFSFFFSSFSSFSSSFSFFS	NULL	NULL	NULL	TrialProc	Relevant	BlockList	1	1	0	161186	9	160696	1	1525	162221
TRSEscan	1181	2	60.001	1	1035497239	1/10/2011	18:05:17	1	BlockProc	SessionList	2	2	1	17	NULL	NULL	NULL	NULL	17	2	17	Faces	NULL	NULL	NULL	Scenes	1	6390	0	172586	10	166296	3	NULL	NULL	face/m_049.bmp	NULL	NULL	NULL	NULL	NULL	NULL	Novel	FFSFFFSSFSSFSSSFSFFS	NULL	NULL	NULL	TrialProc	Irrelevant	BlockList	1	1	0	166186	10	165696	1	717	166413
TRSEscan	1181	2	60.001	1	1035497239	1/10/2011	18:05:17	1	BlockProc	SessionList	2	2	1	18	NULL	NULL	NULL	NULL	18	2	18	Scenes	NULL	NULL	NULL	Scenes	2	2390	0	175586	10	173296	1	NULL	NULL	scene/s_166.bmp	NULL	NULL	NULL	NULL	NULL	NULL	Repeat	FFSFFFSSFSSFSSSFSFFS	NULL	NULL	NULL	TrialProc	Relevant	BlockList	1	2	0	173186	10	172696	2	1637	174333
TRSEscan	1181	2	60.001	1	1035497239	1/10/2011	18:05:17	1	BlockProc	SessionList	2	2	1	19	NULL	NULL	NULL	NULL	19	2	19	Faces	NULL	NULL	NULL	Scenes	1	2390	0	178586	10	176296	1	NULL	NULL	face/m_049.bmp	NULL	NULL	NULL	NULL	NULL	NULL	Repeat	FFSFFFSSFSSFSSSFSFFS	NULL	NULL	NULL	TrialProc	Irrelevant	BlockList	1	1	0	176186	10	175696	1	845	176541
TRSEscan	1181	2	60.001	1	1035497239	1/10/2011	18:05:17	1	BlockProc	SessionList	2	2	1	20	NULL	NULL	NULL	NULL	20	2	20	Faces	NULL	NULL	NULL	Scenes	1	6390	0	185586	10	179296	0	NULL	NULL	face/f_003.bmp	NULL	NULL	NULL	NULL	NULL	NULL	Novel	FFSFFFSSFSSFSSSFSFFS	NULL	NULL	NULL	TrialProc	Irrelevant	BlockList	1	1	0	179186	10	178696	1	613	179309
TRSEscan	1181	2	60.001	1	1035497239	1/10/2011	18:05:17	1	BlockProc	SessionList	2	2	1	21	NULL	NULL	NULL	NULL	21	2	21	Scenes	NULL	NULL	NULL	Scenes	1	4390	0	190586	10	186296	2	NULL	NULL	scene/s_168.bmp	NULL	NULL	NULL	NULL	NULL	NULL	Novel	FFSFFFSSFSSFSSSFSFFS	NULL	NULL	NULL	TrialProc	Relevant	BlockList	1	1	0	186186	10	185696	1	884	186580
TRSEscan	1181	2	60.001	1	1035497239	1/10/2011	18:05:17	1	BlockProc	SessionList	2	2	1	22	NULL	NULL	NULL	NULL	22	2	22		NULL	NULL	NULL	Scenes			NULL	NULL	NULL	NULL		205586	203696		NULL	NULL	NULL	NULL	NULL	NULL			NULL	NULL	NULL	FeedbackProc		BlockList	NULL	NULL	NULL	NULL	NULL	NULL	NULL	NULL	NULL
TRSEscan	1181	2	60.001	1	1035497239	1/10/2011	18:05:17	2	BlockProc	SessionList	2	2	2	1	-999999	213756	10	205696	1	3	23		1	2	1466	Categorize			NULL	NULL	NULL	NULL		NULL	NULL		225260	1	216230	0	226252	225262			0	228152	226262	InstrProc		BlockList	NULL	NULL	NULL	NULL	NULL	NULL	NULL	NULL	NULL
TRSEscan	1181	2	60.001	1	1035497239	1/10/2011	18:05:17	2	BlockProc	SessionList	2	2	2	2	NULL	NULL	NULL	NULL	2	3	24	Faces	NULL	NULL	NULL	Categorize	1	2390	0	231152	10	228862	0	NULL	NULL	face/f_020.bmp	NULL	NULL	NULL	NULL	NULL	NULL	Novel	FFSFFFSSFSSFSSSFSFFS	NULL	NULL	NULL	TrialProc	Irrelevant	BlockList	1	1	0	228752	10	228262	1	1254	229516
TRSEscan	1181	2	60.001	1	1035497239	1/10/2011	18:05:17	2	BlockProc	SessionList	2	2	2	3	NULL	NULL	NULL	NULL	3	3	25	Faces	NULL	NULL	NULL	Categorize	1	4390	0	236152	10	231862	0	NULL	NULL	face/m_043.bmp	NULL	NULL	NULL	NULL	NULL	NULL	Novel	FFSFFFSSFSSFSSSFSFFS	NULL	NULL	NULL	TrialProc	Irrelevant	BlockList	1	1	0	231752	10	231262	1	622	231884
TRSEscan	1181	2	60.001	1	1035497239	1/10/2011	18:05:17	2	BlockProc	SessionList	2	2	2	4	NULL	NULL	NULL	NULL	4	3	26	Scenes	NULL	NULL	NULL	Categorize	2	6390	0	243152	10	236862	2	NULL	NULL	scene/s_234.bmp	NULL	NULL	NULL	NULL	NULL	NULL	Novel	FFSFFFSSFSSFSSSFSFFS	NULL	NULL	NULL	TrialProc	Irrelevant	BlockList	1	2	0	236752	10	236262	2	742	237004
TRSEscan	1181	2	60.001	1	1035497239	1/10/2011	18:05:17	2	BlockProc	SessionList	2	2	2	5	NULL	NULL	NULL	NULL	5	3	27	Faces	NULL	NULL	NULL	Categorize	1	4390	0	248152	10	243862	1	NULL	NULL	face/m_043.bmp	NULL	NULL	NULL	NULL	NULL	NULL	Repeat	FFSFFFSSFSSFSSSFSFFS	NULL	NULL	NULL	TrialProc	Irrelevant	BlockList	1	1	0	243752	10	243262	1	1110	244372
TRSEscan	1181	2	60.001	1	1035497239	1/10/2011	18:05:17	2	BlockProc	SessionList	2	2	2	6	NULL	NULL	NULL	NULL	6	3	28	Faces	NULL	NULL	NULL	Categorize	1	2390	0	251152	10	248862	0	NULL	NULL	face/m_043.bmp	NULL	NULL	NULL	NULL	NULL	NULL	Repeat	FFSFFFSSFSSFSSSFSFFS	NULL	NULL	NULL	TrialProc	Irrelevant	BlockList	1	1	0	248752	10	248262	1	1302	249564
TRSEscan	1181	2	60.001	1	1035497239	1/10/2011	18:05:17	2	BlockProc	SessionList	2	2	2	7	NULL	NULL	NULL	NULL	7	3	29	Faces	NULL	NULL	NULL	Categorize	1	6390	0	258152	10	251862	0	NULL	NULL	face/f_141.bmp	NULL	NULL	NULL	NULL	NULL	NULL	Novel	FFSFFFSSFSSFSSSFSFFS	NULL	NULL	NULL	TrialProc	Irrelevant	BlockList	1	1	0	251752	10	251262	1	1117	252379
TRSEscan	1181	2	60.001	1	1035497239	1/10/2011	18:05:17	2	BlockProc	SessionList	2	2	2	8	NULL	NULL	NULL	NULL	8	3	30	Scenes	NULL	NULL	NULL	Categorize	2	2390	0	261152	10	258862	3	NULL	NULL	scene/s_383.bmp	NULL	NULL	NULL	NULL	NULL	NULL	Novel	FFSFFFSSFSSFSSSFSFFS	NULL	NULL	NULL	TrialProc	Irrelevant	BlockList	1	2	0	258752	10	258262	2	781	259043
TRSEscan	1181	2	60.001	1	1035497239	1/10/2011	18:05:17	2	BlockProc	SessionList	2	2	2	9	NULL	NULL	NULL	NULL	9	3	31	Scenes	NULL	NULL	NULL	Categorize	2	4390	0	266152	10	261862	0	NULL	NULL	scene/s_383.bmp	NULL	NULL	NULL	NULL	NULL	NULL	Repeat	FFSFFFSSFSSFSSSFSFFS	NULL	NULL	NULL	TrialProc	Irrelevant	BlockList	1	2	0	261752	10	261262	2	821	262083
TRSEscan	1181	2	60.001	1	1035497239	1/10/2011	18:05:17	2	BlockProc	SessionList	2	2	2	10	NULL	NULL	NULL	NULL	10	3	32	Faces	NULL	NULL	NULL	Categorize	1	2390	0	269152	10	266862	2	NULL	NULL	face/f_141.bmp	NULL	NULL	NULL	NULL	NULL	NULL	Repeat	FFSFFFSSFSSFSSSFSFFS	NULL	NULL	NULL	TrialProc	Irrelevant	BlockList	1	1	0	266752	10	266262	1	781	267043
TRSEscan	1181	2	60.001	1	1035497239	1/10/2011	18:05:17	2	BlockProc	SessionList	2	2	2	11	NULL	NULL	NULL	NULL	11	3	33	Scenes	NULL	NULL	NULL	Categorize	2	4390	0	274152	10	269862	1	NULL	NULL	scene/s_383.bmp	NULL	NULL	NULL	NULL	NULL	NULL	Repeat	FFSFFFSSFSSFSSSFSFFS	NULL	NULL	NULL	TrialProc	Irrelevant	BlockList	1	2	0	269752	10	269262	2	813	270075
TRSEscan	1181	2	60.001	1	1035497239	1/10/2011	18:05:17	2	BlockProc	SessionList	2	2	2	12	NULL	NULL	NULL	NULL	12	3	34	Scenes	NULL	NULL	NULL	Categorize	2	6390	0	281152	10	274862	0	NULL	NULL	scene/s_043.bmp	NULL	NULL	NULL	NULL	NULL	NULL	Novel	FFSFFFSSFSSFSSSFSFFS	NULL	NULL	NULL	TrialProc	Irrelevant	BlockList	1	2	0	274752	10	274262	2	1165	275427
TRSEscan	1181	2	60.001	1	1035497239	1/10/2011	18:05:17	2	BlockProc	SessionList	2	2	2	13	NULL	NULL	NULL	NULL	13	3	35	Faces	NULL	NULL	NULL	Categorize	1	4390	0	286151	10	281861	2	NULL	NULL	face/m_088.bmp	NULL	NULL	NULL	NULL	NULL	NULL	Novel	FFSFFFSSFSSFSSSFSFFS	NULL	NULL	NULL	TrialProc	Irrelevant	BlockList	1	1	0	281751	9	281261	1	774	282035
TRSEscan	1181	2	60.001	1	1035497239	1/10/2011	18:05:17	2	BlockProc	SessionList	2	2	2	14	NULL	NULL	NULL	NULL	14	3	36	Scenes	NULL	NULL	NULL	Categorize	2	2390	0	289151	10	286861	1	NULL	NULL	scene/s_043.bmp	NULL	NULL	NULL	NULL	NULL	NULL	Repeat	FFSFFFSSFSSFSSSFSFFS	NULL	NULL	NULL	TrialProc	Irrelevant	BlockList	1	2	0	286751	10	286261	2	2494	288755
TRSEscan	1181	2	60.001	1	1035497239	1/10/2011	18:05:17	2	BlockProc	SessionList	2	2	2	15	NULL	NULL	NULL	NULL	15	3	37	Scenes	NULL	NULL	NULL	Categorize	2	6390	0	296151	10	289861	0	NULL	NULL	scene/s_156.bmp	NULL	NULL	NULL	NULL	NULL	NULL	Novel	FFSFFFSSFSSFSSSFSFFS	NULL	NULL	NULL	TrialProc	Irrelevant	BlockList	1	2	0	289751	10	289261	2	750	290011
TRSEscan	1181	2	60.001	1	1035497239	1/10/2011	18:05:17	2	BlockProc	SessionList	2	2	2	16	NULL	NULL	NULL	NULL	16	3	38	Scenes	NULL	NULL	NULL	Categorize	2	4390	0	301151	10	296861	0	NULL	NULL	scene/s_334.bmp	NULL	NULL	NULL	NULL	NULL	NULL	Novel	FFSFFFSSFSSFSSSFSFFS	NULL	NULL	NULL	TrialProc	Irrelevant	BlockList	1	2	0	296751	10	296261	2	1030	297291
TRSEscan	1181	2	60.001	1	1035497239	1/10/2011	18:05:17	2	BlockProc	SessionList	2	2	2	17	NULL	NULL	NULL	NULL	17	3	39	Faces	NULL	NULL	NULL	Categorize	1	6390	0	308151	10	301861	3	NULL	NULL	face/f_041.bmp	NULL	NULL	NULL	NULL	NULL	NULL	Novel	FFSFFFSSFSSFSSSFSFFS	NULL	NULL	NULL	TrialProc	Irrelevant	BlockList	1	1	0	301751	10	301261	1	702	301963
TRSEscan	1181	2	60.001	1	1035497239	1/10/2011	18:05:17	2	BlockProc	SessionList	2	2	2	18	NULL	NULL	NULL	NULL	18	3	40	Scenes	NULL	NULL	NULL	Categorize	2	2390	0	311151	10	308861	1	NULL	NULL	scene/s_334.bmp	NULL	NULL	NULL	NULL	NULL	NULL	Repeat	FFSFFFSSFSSFSSSFSFFS	NULL	NULL	NULL	TrialProc	Irrelevant	BlockList	1	2	0	308751	10	308261	2	1030	309291
TRSEscan	1181	2	60.001	1	1035497239	1/10/2011	18:05:17	2	BlockProc	SessionList	2	2	2	19	NULL	NULL	NULL	NULL	19	3	41	Faces	NULL	NULL	NULL	Categorize	1	2390	0	314151	10	311861	1	NULL	NULL	face/f_041.bmp	NULL	NULL	NULL	NULL	NULL	NULL	Repeat	FFSFFFSSFSSFSSSFSFFS	NULL	NULL	NULL	TrialProc	Irrelevant	BlockList	1	1	0	311751	10	311261	1	838	312099
TRSEscan	1181	2	60.001	1	1035497239	1/10/2011	18:05:17	2	BlockProc	SessionList	2	2	2	20	NULL	NULL	NULL	NULL	20	3	42	Faces	NULL	NULL	NULL	Categorize	1	6390	0	321151	10	314861	0	NULL	NULL	face/m_147.bmp	NULL	NULL	NULL	NULL	NULL	NULL	Novel	FFSFFFSSFSSFSSSFSFFS	NULL	NULL	NULL	TrialProc	Irrelevant	BlockList	1	1	0	314751	10	314261	1	702	314963
TRSEscan	1181	2	60.001	1	1035497239	1/10/2011	18:05:17	2	BlockProc	SessionList	2	2	2	21	NULL	NULL	NULL	NULL	21	3	43	Scenes	NULL	NULL	NULL	Categorize	2	4390	0	326151	10	321861	2	NULL	NULL	scene/s_163.bmp	NULL	NULL	NULL	NULL	NULL	NULL	Novel	FFSFFFSSFSSFSSSFSFFS	NULL	NULL	NULL	TrialProc	Irrelevant	BlockList	1	2	0	321751	10	321261	2	702	321963
TRSEscan	1181	2	60.001	1	1035497239	1/10/2011	18:05:17	2	BlockProc	SessionList	2	2	2	22	NULL	NULL	NULL	NULL	22	3	44		NULL	NULL	NULL	Categorize			NULL	NULL	NULL	NULL		341151	339261		NULL	NULL	NULL	NULL	NULL	NULL			NULL	NULL	NULL	FeedbackProc		BlockList	NULL	NULL	NULL	NULL	NULL	NULL	NULL	NULL	NULL
TRSEscan	1181	2	60.001	1	1035497239	1/10/2011	18:05:17	3	BlockProc	SessionList	2	2	3	1	-999999	348082	10	341261	1	4	45		1	2	2180	Both			NULL	NULL	NULL	NULL		NULL	NULL		364874	1	351278	0	365867	364877			0	367767	365877	InstrProc		BlockList	NULL	NULL	NULL	NULL	NULL	NULL	NULL	NULL	NULL
TRSEscan	1181	2	60.001	1	1035497239	1/10/2011	18:05:17	3	BlockProc	SessionList	2	2	3	2	NULL	NULL	NULL	NULL	2	4	46	Faces	NULL	NULL	NULL	Both	1	2390	0	370767	10	368477	0	NULL	NULL	face/m_073.bmp	NULL	NULL	NULL	NULL	NULL	NULL	Novel	FFSFFFSSFSSFSSSFSFFS	NULL	NULL	NULL	TrialProc	Relevant	BlockList	1	1	0	368367	10	367877	1	2093	369970
TRSEscan	1181	2	60.001	1	1035497239	1/10/2011	18:05:17	3	BlockProc	SessionList	2	2	3	3	NULL	NULL	NULL	NULL	3	4	47	Faces	NULL	NULL	NULL	Both	1	4390	0	375767	10	371477	0	NULL	NULL	face/m_124.bmp	NULL	NULL	NULL	NULL	NULL	NULL	Novel	FFSFFFSSFSSFSSSFSFFS	NULL	NULL	NULL	TrialProc	Relevant	BlockList	0	1	0	371367	10	370877	2	765	371642
TRSEscan	1181	2	60.001	1	1035497239	1/10/2011	18:05:17	3	BlockProc	SessionList	2	2	3	4	NULL	NULL	NULL	NULL	4	4	48	Scenes	NULL	NULL	NULL	Both	1	6390	0	382767	10	376477	2	NULL	NULL	scene/s_122.bmp	NULL	NULL	NULL	NULL	NULL	NULL	Novel	FFSFFFSSFSSFSSSFSFFS	NULL	NULL	NULL	TrialProc	Relevant	BlockList	1	1	0	376367	10	375877	1	1301	377178
TRSEscan	1181	2	60.001	1	1035497239	1/10/2011	18:05:17	3	BlockProc	SessionList	2	2	3	5	NULL	NULL	NULL	NULL	5	4	49	Faces	NULL	NULL	NULL	Both	2	4390	0	387767	10	383477	1	NULL	NULL	face/m_124.bmp	NULL	NULL	NULL	NULL	NULL	NULL	Repeat	FFSFFFSSFSSFSSSFSFFS	NULL	NULL	NULL	TrialProc	Relevant	BlockList	1	2	0	383367	10	382877	2	813	383690
TRSEscan	1181	2	60.001	1	1035497239	1/10/2011	18:05:17	3	BlockProc	SessionList	2	2	3	6	NULL	NULL	NULL	NULL	6	4	50	Faces	NULL	NULL	NULL	Both	2	2390	0	390767	10	388477	0	NULL	NULL	face/m_124.bmp	NULL	NULL	NULL	NULL	NULL	NULL	Repeat	FFSFFFSSFSSFSSSFSFFS	NULL	NULL	NULL	TrialProc	Relevant	BlockList	1	2	0	388367	10	387877	2	845	388722
TRSEscan	1181	2	60.001	1	1035497239	1/10/2011	18:05:17	3	BlockProc	SessionList	2	2	3	7	NULL	NULL	NULL	NULL	7	4	51	Faces	NULL	NULL	NULL	Both	1	6390	0	397767	10	391477	0	NULL	NULL	face/m_122.bmp	NULL	NULL	NULL	NULL	NULL	NULL	Novel	FFSFFFSSFSSFSSSFSFFS	NULL	NULL	NULL	TrialProc	Relevant	BlockList	1	1	0	391367	10	390877	1	1213	392090
TRSEscan	1181	2	60.001	1	1035497239	1/10/2011	18:05:17	3	BlockProc	SessionList	2	2	3	8	NULL	NULL	NULL	NULL	8	4	52	Scenes	NULL	NULL	NULL	Both	1	2390	0	400767	10	398477	3	NULL	NULL	scene/s_361.bmp	NULL	NULL	NULL	NULL	NULL	NULL	Novel	FFSFFFSSFSSFSSSFSFFS	NULL	NULL	NULL	TrialProc	Relevant	BlockList	1	1	0	398367	10	397877	1	1421	399298
TRSEscan	1181	2	60.001	1	1035497239	1/10/2011	18:05:17	3	BlockProc	SessionList	2	2	3	9	NULL	NULL	NULL	NULL	9	4	53	Scenes	NULL	NULL	NULL	Both	2	4390	0	405767	10	401477	0	NULL	NULL	scene/s_361.bmp	NULL	NULL	NULL	NULL	NULL	NULL	Repeat	FFSFFFSSFSSFSSSFSFFS	NULL	NULL	NULL	TrialProc	Relevant	BlockList	1	2	0	401367	10	400877	2	917	401794
TRSEscan	1181	2	60.001	1	1035497239	1/10/2011	18:05:17	3	BlockProc	SessionList	2	2	3	10	NULL	NULL	NULL	NULL	10	4	54	Faces	NULL	NULL	NULL	Both	2	2390	0	408766	10	406476	2	NULL	NULL	face/m_122.bmp	NULL	NULL	NULL	NULL	NULL	NULL	Repeat	FFSFFFSSFSSFSSSFSFFS	NULL	NULL	NULL	TrialProc	Relevant	BlockList	0	2	0	406366	9	405876	1	1077	406953
TRSEscan	1181	2	60.001	1	1035497239	1/10/2011	18:05:17	3	BlockProc	SessionList	2	2	3	11	NULL	NULL	NULL	NULL	11	4	55	Scenes	NULL	NULL	NULL	Both	2	4390	0	413766	10	409476	1	NULL	NULL	scene/s_361.bmp	NULL	NULL	NULL	NULL	NULL	NULL	Repeat	FFSFFFSSFSSFSSSFSFFS	NULL	NULL	NULL	TrialProc	Relevant	BlockList	1	2	0	409366	10	408876	2	813	409689
TRSEscan	1181	2	60.001	1	1035497239	1/10/2011	18:05:17	3	BlockProc	SessionList	2	2	3	12	NULL	NULL	NULL	NULL	12	4	56	Scenes	NULL	NULL	NULL	Both	1	6390	0	420766	10	414476	0	NULL	NULL	scene/s_159.bmp	NULL	NULL	NULL	NULL	NULL	NULL	Novel	FFSFFFSSFSSFSSSFSFFS	NULL	NULL	NULL	TrialProc	Relevant	BlockList	1	1	0	414366	10	413876	1	1797	415673
TRSEscan	1181	2	60.001	1	1035497239	1/10/2011	18:05:17	3	BlockProc	SessionList	2	2	3	13	NULL	NULL	NULL	NULL	13	4	57	Faces	NULL	NULL	NULL	Both	1	4390	0	425766	10	421476	2	NULL	NULL	face/m_029.bmp	NULL	NULL	NULL	NULL	NULL	NULL	Novel	FFSFFFSSFSSFSSSFSFFS	NULL	NULL	NULL	TrialProc	Relevant	BlockList	1	1	0	421366	10	420876	1	2661	423537
TRSEscan	1181	2	60.001	1	1035497239	1/10/2011	18:05:17	3	BlockProc	SessionList	2	2	3	14	NULL	NULL	NULL	NULL	14	4	58	Scenes	NULL	NULL	NULL	Both	2	2390	0	428766	10	426476	1	NULL	NULL	scene/s_159.bmp	NULL	NULL	NULL	NULL	NULL	NULL	Repeat	FFSFFFSSFSSFSSSFSFFS	NULL	NULL	NULL	TrialProc	Relevant	BlockList	1	2	0	426366	10	425876	2	1133	427009
TRSEscan	1181	2	60.001	1	1035497239	1/10/2011	18:05:17	3	BlockProc	SessionList	2	2	3	15	NULL	NULL	NULL	NULL	15	4	59	Scenes	NULL	NULL	NULL	Both	1	6390	0	435766	10	429476	0	NULL	NULL	scene/s_242.bmp	NULL	NULL	NULL	NULL	NULL	NULL	Novel	FFSFFFSSFSSFSSSFSFFS	NULL	NULL	NULL	TrialProc	Relevant	BlockList	1	1	0	429366	10	428876	1	1285	430161
TRSEscan	1181	2	60.001	1	1035497239	1/10/2011	18:05:17	3	BlockProc	SessionList	2	2	3	16	NULL	NULL	NULL	NULL	16	4	60	Scenes	NULL	NULL	NULL	Both	1	4390	0	440766	10	436476	0	NULL	NULL	scene/s_432.bmp	NULL	NULL	NULL	NULL	NULL	NULL	Novel	FFSFFFSSFSSFSSSFSFFS	NULL	NULL	NULL	TrialProc	Relevant	BlockList	1	1	0	436366	10	435876	1	2621	438497
TRSEscan	1181	2	60.001	1	1035497239	1/10/2011	18:05:17	3	BlockProc	SessionList	2	2	3	17	NULL	NULL	NULL	NULL	17	4	61	Faces	NULL	NULL	NULL	Both	1	6390	0	447766	10	441476	3	NULL	NULL	face/f_005.bmp	NULL	NULL	NULL	NULL	NULL	NULL	Novel	FFSFFFSSFSSFSSSFSFFS	NULL	NULL	NULL	TrialProc	Relevant	BlockList	1	1	0	441366	10	440876	1	2501	443377
TRSEscan	1181	2	60.001	1	1035497239	1/10/2011	18:05:17	3	BlockProc	SessionList	2	2	3	18	NULL	NULL	NULL	NULL	18	4	62	Scenes	NULL	NULL	NULL	Both	2	2390	0	450766	10	448476	1	NULL	NULL	scene/s_432.bmp	NULL	NULL	NULL	NULL	NULL	NULL	Repeat	FFSFFFSSFSSFSSSFSFFS	NULL	NULL	NULL	TrialProc	Relevant	BlockList	1	2	0	448366	10	447876	2	1285	449161
TRSEscan	1181	2	60.001	1	1035497239	1/10/2011	18:05:17	3	BlockProc	SessionList	2	2	3	19	NULL	NULL	NULL	NULL	19	4	63	Faces	NULL	NULL	NULL	Both	2	2390	0	453766	10	451476	1	NULL	NULL	face/f_005.bmp	NULL	NULL	NULL	NULL	NULL	NULL	Repeat	FFSFFFSSFSSFSSSFSFFS	NULL	NULL	NULL	TrialProc	Relevant	BlockList	1	2	0	451366	10	450876	2	1397	452273
TRSEscan	1181	2	60.001	1	1035497239	1/10/2011	18:05:17	3	BlockProc	SessionList	2	2	3	20	NULL	NULL	NULL	NULL	20	4	64	Faces	NULL	NULL	NULL	Both	1	6390	0	460766	10	454476	0	NULL	NULL	face/m_085.bmp	NULL	NULL	NULL	NULL	NULL	NULL	Novel	FFSFFFSSFSSFSSSFSFFS	NULL	NULL	NULL	TrialProc	Relevant	BlockList	1	1	0	454366	10	453876	1	709	454585
TRSEscan	1181	2	60.001	1	1035497239	1/10/2011	18:05:17	3	BlockProc	SessionList	2	2	3	21	NULL	NULL	NULL	NULL	21	4	65	Scenes	NULL	NULL	NULL	Both	1	4390	0	465766	10	461476	2	NULL	NULL	scene/s_400.bmp	NULL	NULL	NULL	NULL	NULL	NULL	Novel	FFSFFFSSFSSFSSSFSFFS	NULL	NULL	NULL	TrialProc	Relevant	BlockList	1	1	0	461366	10	460876	1	1197	462073
TRSEscan	1181	2	60.001	1	1035497239	1/10/2011	18:05:17	3	BlockProc	SessionList	2	2	3	22	NULL	NULL	NULL	NULL	22	4	66		NULL	NULL	NULL	Both			NULL	NULL	NULL	NULL		480765	478875		NULL	NULL	NULL	NULL	NULL	NULL			NULL	NULL	NULL	FeedbackProc		BlockList	NULL	NULL	NULL	NULL	NULL	NULL	NULL	NULL	NULL
TRSEscan	1181	2	60.001	1	1035497239	1/10/2011	18:05:17	4	BlockProc	SessionList	2	2	4	1	-999999	487464	10	480875	1	5	67		1	2	1309	Faces			NULL	NULL	NULL	NULL		NULL	NULL		500392	1	489793	0	501383	500393			0	503282	501392	InstrProc		BlockList	NULL	NULL	NULL	NULL	NULL	NULL	NULL	NULL	NULL
TRSEscan	1181	2	60.001	1	1035497239	1/10/2011	18:05:17	4	BlockProc	SessionList	2	2	4	2	NULL	NULL	NULL	NULL	2	5	68	Faces	NULL	NULL	NULL	Faces	1	2390	0	506282	10	503992	0	NULL	NULL	face/f_123.bmp	NULL	NULL	NULL	NULL	NULL	NULL	Novel	FFSFFFSSFSSFSSSFSFFS	NULL	NULL	NULL	TrialProc	Relevant	BlockList	1	1	0	503882	10	503392	1	1688	505080
TRSEscan	1181	2	60.001	1	1035497239	1/10/2011	18:05:17	4	BlockProc	SessionList	2	2	4	3	NULL	NULL	NULL	NULL	3	5	69	Faces	NULL	NULL	NULL	Faces	1	4390	0	511282	10	506992	0	NULL	NULL	face/m_027.bmp	NULL	NULL	NULL	NULL	NULL	NULL	Novel	FFSFFFSSFSSFSSSFSFFS	NULL	NULL	NULL	TrialProc	Relevant	BlockList	1	1	0	506882	10	506392	1	952	507344
TRSEscan	1181	2	60.001	1	1035497239	1/10/2011	18:05:17	4	BlockProc	SessionList	2	2	4	4	NULL	NULL	NULL	NULL	4	5	70	Scenes	NULL	NULL	NULL	Faces	1	6390	0	518282	10	511992	2	NULL	NULL	scene/s_425.bmp	NULL	NULL	NULL	NULL	NULL	NULL	Novel	FFSFFFSSFSSFSSSFSFFS	NULL	NULL	NULL	TrialProc	Irrelevant	BlockList	1	1	0	511882	10	511392	1	928	512320
TRSEscan	1181	2	60.001	1	1035497239	1/10/2011	18:05:17	4	BlockProc	SessionList	2	2	4	5	NULL	NULL	NULL	NULL	5	5	71	Faces	NULL	NULL	NULL	Faces	2	4390	0	523282	10	518992	1	NULL	NULL	face/m_027.bmp	NULL	NULL	NULL	NULL	NULL	NULL	Repeat	FFSFFFSSFSSFSSSFSFFS	NULL	NULL	NULL	TrialProc	Relevant	BlockList	1	2	0	518882	10	518392	2	904	519296
TRSEscan	1181	2	60.001	1	1035497239	1/10/2011	18:05:17	4	BlockProc	SessionList	2	2	4	6	NULL	NULL	NULL	NULL	6	5	72	Faces	NULL	NULL	NULL	Faces	2	2390	0	526282	10	523992	0	NULL	NULL	face/m_027.bmp	NULL	NULL	NULL	NULL	NULL	NULL	Repeat	FFSFFFSSFSSFSSSFSFFS	NULL	NULL	NULL	TrialProc	Relevant	BlockList	1	2	0	523882	10	523392	2	1088	524480
TRSEscan	1181	2	60.001	1	1035497239	1/10/2011	18:05:17	4	BlockProc	SessionList	2	2	4	7	NULL	NULL	NULL	NULL	7	5	73	Faces	NULL	NULL	NULL	Faces	1	6390	0	533281	10	526991	0	NULL	NULL	face/f_115.bmp	NULL	NULL	NULL	NULL	NULL	NULL	Novel	FFSFFFSSFSSFSSSFSFFS	NULL	NULL	NULL	TrialProc	Relevant	BlockList	1	1	0	526881	9	526391	1	881	527272
TRSEscan	1181	2	60.001	1	1035497239	1/10/2011	18:05:17	4	BlockProc	SessionList	2	2	4	8	NULL	NULL	NULL	NULL	8	5	74	Scenes	NULL	NULL	NULL	Faces	1	2390	0	536281	10	533991	3	NULL	NULL	scene/s_272.bmp	NULL	NULL	NULL	NULL	NULL	NULL	Novel	FFSFFFSSFSSFSSSFSFFS	NULL	NULL	NULL	TrialProc	Irrelevant	BlockList	1	1	0	533881	10	533391	1	897	534288
TRSEscan	1181	2	60.001	1	1035497239	1/10/2011	18:05:17	4	BlockProc	SessionList	2	2	4	9	NULL	NULL	NULL	NULL	9	5	75	Scenes	NULL	NULL	NULL	Faces	1	4390	0	541281	10	536991	0	NULL	NULL	scene/s_272.bmp	NULL	NULL	NULL	NULL	NULL	NULL	Repeat	FFSFFFSSFSSFSSSFSFFS	NULL	NULL	NULL	TrialProc	Irrelevant	BlockList	1	1	0	536881	10	536391	1	665	537056
TRSEscan	1181	2	60.001	1	1035497239	1/10/2011	18:05:17	4	BlockProc	SessionList	2	2	4	10	NULL	NULL	NULL	NULL	10	5	76	Faces	NULL	NULL	NULL	Faces	2	2390	0	544281	10	541991	2	NULL	NULL	face/f_115.bmp	NULL	NULL	NULL	NULL	NULL	NULL	Repeat	FFSFFFSSFSSFSSSFSFFS	NULL	NULL	NULL	TrialProc	Relevant	BlockList	0	2	0	541881	10	541391	1	705	542096
TRSEscan	1181	2	60.001	1	1035497239	1/10/2011	18:05:17	4	BlockProc	SessionList	2	2	4	11	NULL	NULL	NULL	NULL	11	5	77	Scenes	NULL	NULL	NULL	Faces	1	4390	0	549281	10	544991	1	NULL	NULL	scene/s_272.bmp	NULL	NULL	NULL	NULL	NULL	NULL	Repeat	FFSFFFSSFSSFSSSFSFFS	NULL	NULL	NULL	TrialProc	Irrelevant	BlockList	1	1	0	544881	10	544391	1	809	545200
TRSEscan	1181	2	60.001	1	1035497239	1/10/2011	18:05:17	4	BlockProc	SessionList	2	2	4	12	NULL	NULL	NULL	NULL	12	5	78	Scenes	NULL	NULL	NULL	Faces	1	6390	0	556281	10	549991	0	NULL	NULL	scene/s_304.bmp	NULL	NULL	NULL	NULL	NULL	NULL	Novel	FFSFFFSSFSSFSSSFSFFS	NULL	NULL	NULL	TrialProc	Irrelevant	BlockList	1	1	0	549881	10	549391	1	2592	551983
TRSEscan	1181	2	60.001	1	1035497239	1/10/2011	18:05:17	4	BlockProc	SessionList	2	2	4	13	NULL	NULL	NULL	NULL	13	5	79	Faces	NULL	NULL	NULL	Faces	1	4390	0	561281	10	556991	2	NULL	NULL	face/m_089.bmp	NULL	NULL	NULL	NULL	NULL	NULL	Novel	FFSFFFSSFSSFSSSFSFFS	NULL	NULL	NULL	TrialProc	Relevant	BlockList	1	1	0	556881	10	556391	1	776	557167
TRSEscan	1181	2	60.001	1	1035497239	1/10/2011	18:05:17	4	BlockProc	SessionList	2	2	4	14	NULL	NULL	NULL	NULL	14	5	80	Scenes	NULL	NULL	NULL	Faces	1	2390	0	564281	10	561991	1	NULL	NULL	scene/s_304.bmp	NULL	NULL	NULL	NULL	NULL	NULL	Repeat	FFSFFFSSFSSFSSSFSFFS	NULL	NULL	NULL	TrialProc	Irrelevant	BlockList	1	1	0	561881	10	561391	1	824	562215
TRSEscan	1181	2	60.001	1	1035497239	1/10/2011	18:05:17	4	BlockProc	SessionList	2	2	4	15	NULL	NULL	NULL	NULL	15	5	81	Scenes	NULL	NULL	NULL	Faces	1	6390	0	571281	10	564991	0	NULL	NULL	scene/s_170.bmp	NULL	NULL	NULL	NULL	NULL	NULL	Novel	FFSFFFSSFSSFSSSFSFFS	NULL	NULL	NULL	TrialProc	Irrelevant	BlockList	1	1	0	564881	10	564391	1	992	565383
TRSEscan	1181	2	60.001	1	1035497239	1/10/2011	18:05:17	4	BlockProc	SessionList	2	2	4	16	NULL	NULL	NULL	NULL	16	5	82	Scenes	NULL	NULL	NULL	Faces	1	4390	0	576281	10	571991	0	NULL	NULL	scene/s_192.bmp	NULL	NULL	NULL	NULL	NULL	NULL	Novel	FFSFFFSSFSSFSSSFSFFS	NULL	NULL	NULL	TrialProc	Irrelevant	BlockList	1	1	0	571881	10	571391	1	1080	572471
TRSEscan	1181	2	60.001	1	1035497239	1/10/2011	18:05:17	4	BlockProc	SessionList	2	2	4	17	NULL	NULL	NULL	NULL	17	5	83	Faces	NULL	NULL	NULL	Faces	1	6390	0	583281	10	576991	3	NULL	NULL	face/f_045.bmp	NULL	NULL	NULL	NULL	NULL	NULL	Novel	FFSFFFSSFSSFSSSFSFFS	NULL	NULL	NULL	TrialProc	Relevant	BlockList	1	1	0	576881	10	576391	1	1768	578159
TRSEscan	1181	2	60.001	1	1035497239	1/10/2011	18:05:17	4	BlockProc	SessionList	2	2	4	18	NULL	NULL	NULL	NULL	18	5	84	Scenes	NULL	NULL	NULL	Faces	1	2390	0	586281	10	583991	1	NULL	NULL	scene/s_192.bmp	NULL	NULL	NULL	NULL	NULL	NULL	Repeat	FFSFFFSSFSSFSSSFSFFS	NULL	NULL	NULL	TrialProc	Irrelevant	BlockList	1	1	0	583881	10	583391	1	1928	585319
TRSEscan	1181	2	60.001	1	1035497239	1/10/2011	18:05:17	4	BlockProc	SessionList	2	2	4	19	NULL	NULL	NULL	NULL	19	5	85	Faces	NULL	NULL	NULL	Faces	2	2390	0	589281	10	586991	1	NULL	NULL	face/f_045.bmp	NULL	NULL	NULL	NULL	NULL	NULL	Repeat	FFSFFFSSFSSFSSSFSFFS	NULL	NULL	NULL	TrialProc	Relevant	BlockList	0	2	0	586881	10	586391	1	1272	587663
TRSEscan	1181	2	60.001	1	1035497239	1/10/2011	18:05:17	4	BlockProc	SessionList	2	2	4	20	NULL	NULL	NULL	NULL	20	5	86	Faces	NULL	NULL	NULL	Faces	1	6390	0	596281	10	589991	0	NULL	NULL	face/f_146.bmp	NULL	NULL	NULL	NULL	NULL	NULL	Novel	FFSFFFSSFSSFSSSFSFFS	NULL	NULL	NULL	TrialProc	Relevant	BlockList	1	1	0	589881	10	589391	1	1608	590999
TRSEscan	1181	2	60.001	1	1035497239	1/10/2011	18:05:17	4	BlockProc	SessionList	2	2	4	21	NULL	NULL	NULL	NULL	21	5	87	Scenes	NULL	NULL	NULL	Faces	1	4390	0	601281	10	596991	2	NULL	NULL	scene/s_352.bmp	NULL	NULL	NULL	NULL	NULL	NULL	Novel	FFSFFFSSFSSFSSSFSFFS	NULL	NULL	NULL	TrialProc	Irrelevant	BlockList	1	1	0	596881	10	596391	1	704	597095
TRSEscan	1181	2	60.001	1	1035497239	1/10/2011	18:05:17	4	BlockProc	SessionList	2	2	4	22	NULL	NULL	NULL	NULL	22	5	88		NULL	NULL	NULL	Faces			NULL	NULL	NULL	NULL		616280	614390		NULL	NULL	NULL	NULL	NULL	NULL			NULL	NULL	NULL	FeedbackProc		BlockList	NULL	NULL	NULL	NULL	NULL	NULL	NULL	NULL	NULL
TRSEscan	1181	3	60.001	1	-1285257081	1/10/2011	18:16:20	1	BlockProc	SessionList	2	2	1	1	-999999	76677	1	74015	1	2	1		1	2	1532	Categorize			NULL	NULL	NULL	NULL		NULL	NULL		90253	1	79216	0	91254	90264			0	93154	91264	InstrProc		BlockList	NULL	NULL	NULL	NULL	NULL	NULL	NULL	NULL	NULL
TRSEscan	1181	3	60.001	1	-1285257081	1/10/2011	18:16:20	1	BlockProc	SessionList	2	2	1	2	NULL	NULL	NULL	NULL	2	2	2	Faces	NULL	NULL	NULL	Categorize	1	4390	0	98154	10	93864	0	NULL	NULL	face/f_066.bmp	NULL	NULL	NULL	NULL	NULL	NULL	Novel	FFSFFFSFFSSFSFSSSFSS	NULL	NULL	NULL	TrialProc	Irrelevant	BlockList	1	1	0	93754	10	93264	1	581	93845
TRSEscan	1181	3	60.001	1	-1285257081	1/10/2011	18:16:20	1	BlockProc	SessionList	2	2	1	3	NULL	NULL	NULL	NULL	3	2	3	Faces	NULL	NULL	NULL	Categorize	1	2390	0	101154	10	98864	0	NULL	NULL	face/f_099.bmp	NULL	NULL	NULL	NULL	NULL	NULL	Novel	FFSFFFSFFSSFSFSSSFSS	NULL	NULL	NULL	TrialProc	Irrelevant	BlockList	1	1	0	98754	10	98264	1	701	98965
TRSEscan	1181	3	60.001	1	-1285257081	1/10/2011	18:16:20	1	BlockProc	SessionList	2	2	1	4	NULL	NULL	NULL	NULL	4	2	4	Scenes	NULL	NULL	NULL	Categorize	2	2390	0	104154	10	101864	2	NULL	NULL	scene/s_315.bmp	NULL	NULL	NULL	NULL	NULL	NULL	Novel	FFSFFFSFFSSFSFSSSFSS	NULL	NULL	NULL	TrialProc	Irrelevant	BlockList	1	2	0	101754	10	101264	2	677	101941
TRSEscan	1181	3	60.001	1	-1285257081	1/10/2011	18:16:20	1	BlockProc	SessionList	2	2	1	5	NULL	NULL	NULL	NULL	5	2	5	Faces	NULL	NULL	NULL	Categorize	1	6390	0	111154	10	104864	1	NULL	NULL	face/f_147.bmp	NULL	NULL	NULL	NULL	NULL	NULL	Novel	FFSFFFSFFSSFSFSSSFSS	NULL	NULL	NULL	TrialProc	Irrelevant	BlockList	1	1	0	104754	10	104264	1	541	104805
TRSEscan	1181	3	60.001	1	-1285257081	1/10/2011	18:16:20	1	BlockProc	SessionList	2	2	1	6	NULL	NULL	NULL	NULL	6	2	6	Faces	NULL	NULL	NULL	Categorize	1	4390	0	116154	10	111864	0	NULL	NULL	face/f_147.bmp	NULL	NULL	NULL	NULL	NULL	NULL	Repeat	FFSFFFSFFSSFSFSSSFSS	NULL	NULL	NULL	TrialProc	Irrelevant	BlockList	1	1	0	111754	10	111264	1	677	111941
TRSEscan	1181	3	60.001	1	-1285257081	1/10/2011	18:16:20	1	BlockProc	SessionList	2	2	1	7	NULL	NULL	NULL	NULL	7	2	7	Faces	NULL	NULL	NULL	Categorize	1	6390	0	123154	10	116864	0	NULL	NULL	face/m_071.bmp	NULL	NULL	NULL	NULL	NULL	NULL	Novel	FFSFFFSFFSSFSFSSSFSS	NULL	NULL	NULL	TrialProc	Irrelevant	BlockList	1	1	0	116754	10	116264	1	493	116757
TRSEscan	1181	3	60.001	1	-1285257081	1/10/2011	18:16:20	1	BlockProc	SessionList	2	2	1	8	NULL	NULL	NULL	NULL	8	2	8	Scenes	NULL	NULL	NULL	Categorize	2	2390	0	126154	10	123864	3	NULL	NULL	scene/s_434.bmp	NULL	NULL	NULL	NULL	NULL	NULL	Novel	FFSFFFSFFSSFSFSSSFSS	NULL	NULL	NULL	TrialProc	Irrelevant	BlockList	1	2	0	123754	10	123264	2	837	124101
TRSEscan	1181	3	60.001	1	-1285257081	1/10/2011	18:16:20	1	BlockProc	SessionList	2	2	1	9	NULL	NULL	NULL	NULL	9	2	9	Faces	NULL	NULL	NULL	Categorize	1	4390	0	131154	10	126864	1	NULL	NULL	face/f_006.bmp	NULL	NULL	NULL	NULL	NULL	NULL	Novel	FFSFFFSFFSSFSFSSSFSS	NULL	NULL	NULL	TrialProc	Irrelevant	BlockList	1	1	0	126754	10	126264	1	653	126917
TRSEscan	1181	3	60.001	1	-1285257081	1/10/2011	18:16:20	1	BlockProc	SessionList	2	2	1	10	NULL	NULL	NULL	NULL	10	2	10	Faces	NULL	NULL	NULL	Categorize	1	6390	0	138154	10	131864	0	NULL	NULL	face/f_006.bmp	NULL	NULL	NULL	NULL	NULL	NULL	Repeat	FFSFFFSFFSSFSFSSSFSS	NULL	NULL	NULL	TrialProc	Irrelevant	BlockList	1	1	0	131754	10	131264	1	844	132108
TRSEscan	1181	3	60.001	1	-1285257081	1/10/2011	18:16:20	1	BlockProc	SessionList	2	2	1	11	NULL	NULL	NULL	NULL	11	2	11	Scenes	NULL	NULL	NULL	Categorize	2	4390	0	143154	10	138864	2	NULL	NULL	scene/s_025.bmp	NULL	NULL	NULL	NULL	NULL	NULL	Novel	FFSFFFSFFSSFSFSSSFSS	NULL	NULL	NULL	TrialProc	Irrelevant	BlockList	1	2	0	138754	10	138264	2	812	139076
TRSEscan	1181	3	60.001	1	-1285257081	1/10/2011	18:16:20	1	BlockProc	SessionList	2	2	1	12	NULL	NULL	NULL	NULL	12	2	12	Scenes	NULL	NULL	NULL	Categorize	2	2390	0	146154	10	143864	0	NULL	NULL	scene/s_025.bmp	NULL	NULL	NULL	NULL	NULL	NULL	Repeat	FFSFFFSFFSSFSFSSSFSS	NULL	NULL	NULL	TrialProc	Irrelevant	BlockList	1	2	0	143754	10	143264	2	780	144044
TRSEscan	1181	3	60.001	1	-1285257081	1/10/2011	18:16:20	1	BlockProc	SessionList	2	2	1	13	NULL	NULL	NULL	NULL	13	2	13	Faces	NULL	NULL	NULL	Categorize	1	4390	0	151154	10	146864	2	NULL	NULL	face/f_006.bmp	NULL	NULL	NULL	NULL	NULL	NULL	Repeat	FFSFFFSFFSSFSFSSSFSS	NULL	NULL	NULL	TrialProc	Irrelevant	BlockList	1	1	0	146754	10	146264	1	716	146980
TRSEscan	1181	3	60.001	1	-1285257081	1/10/2011	18:16:20	1	BlockProc	SessionList	2	2	1	14	NULL	NULL	NULL	NULL	14	2	14	Scenes	NULL	NULL	NULL	Categorize	2	2390	0	154154	10	151864	1	NULL	NULL	scene/s_317.bmp	NULL	NULL	NULL	NULL	NULL	NULL	Novel	FFSFFFSFFSSFSFSSSFSS	NULL	NULL	NULL	TrialProc	Irrelevant	BlockList	1	2	0	151754	10	151264	2	1164	152428
TRSEscan	1181	3	60.001	1	-1285257081	1/10/2011	18:16:20	1	BlockProc	SessionList	2	2	1	15	NULL	NULL	NULL	NULL	15	2	15	Faces	NULL	NULL	NULL	Categorize	1	6390	0	161153	10	154863	1	NULL	NULL	face/m_069.bmp	NULL	NULL	NULL	NULL	NULL	NULL	Novel	FFSFFFSFFSSFSFSSSFSS	NULL	NULL	NULL	TrialProc	Irrelevant	BlockList	1	1	0	154753	9	154263	1	981	155244
TRSEscan	1181	3	60.001	1	-1285257081	1/10/2011	18:16:20	1	BlockProc	SessionList	2	2	1	16	NULL	NULL	NULL	NULL	16	2	16	Scenes	NULL	NULL	NULL	Categorize	2	4390	0	166153	10	161863	1	NULL	NULL	scene/s_306.bmp	NULL	NULL	NULL	NULL	NULL	NULL	Novel	FFSFFFSFFSSFSFSSSFSS	NULL	NULL	NULL	TrialProc	Irrelevant	BlockList	1	2	0	161753	10	161263	2	925	162188
TRSEscan	1181	3	60.001	1	-1285257081	1/10/2011	18:16:20	1	BlockProc	SessionList	2	2	1	17	NULL	NULL	NULL	NULL	17	2	17	Scenes	NULL	NULL	NULL	Categorize	2	6390	0	173153	10	166863	0	NULL	NULL	scene/s_306.bmp	NULL	NULL	NULL	NULL	NULL	NULL	Repeat	FFSFFFSFFSSFSFSSSFSS	NULL	NULL	NULL	TrialProc	Irrelevant	BlockList	1	2	0	166753	10	166263	2	829	167092
TRSEscan	1181	3	60.001	1	-1285257081	1/10/2011	18:16:20	1	BlockProc	SessionList	2	2	1	18	NULL	NULL	NULL	NULL	18	2	18	Scenes	NULL	NULL	NULL	Categorize	2	2390	0	176153	10	173863	0	NULL	NULL	scene/s_306.bmp	NULL	NULL	NULL	NULL	NULL	NULL	Repeat	FFSFFFSFFSSFSFSSSFSS	NULL	NULL	NULL	TrialProc	Irrelevant	BlockList	1	2	0	173753	10	173263	2	973	174236
TRSEscan	1181	3	60.001	1	-1285257081	1/10/2011	18:16:20	1	BlockProc	SessionList	2	2	1	19	NULL	NULL	NULL	NULL	19	2	19	Faces	NULL	NULL	NULL	Categorize	1	2390	0	179153	10	176863	3	NULL	NULL	face/m_069.bmp	NULL	NULL	NULL	NULL	NULL	NULL	Repeat	FFSFFFSFFSSFSFSSSFSS	NULL	NULL	NULL	TrialProc	Irrelevant	BlockList	1	1	0	176753	10	176263	1	973	177236
TRSEscan	1181	3	60.001	1	-1285257081	1/10/2011	18:16:20	1	BlockProc	SessionList	2	2	1	20	NULL	NULL	NULL	NULL	20	2	20	Scenes	NULL	NULL	NULL	Categorize	2	4390	0	184153	10	179863	1	NULL	NULL	scene/s_351.bmp	NULL	NULL	NULL	NULL	NULL	NULL	Novel	FFSFFFSFFSSFSFSSSFSS	NULL	NULL	NULL	TrialProc	Irrelevant	BlockList	1	2	0	179753	10	179263	2	981	180244
TRSEscan	1181	3	60.001	1	-1285257081	1/10/2011	18:16:20	1	BlockProc	SessionList	2	2	1	21	NULL	NULL	NULL	NULL	21	2	21	Scenes	NULL	NULL	NULL	Categorize	2	6390	0	191153	10	184863	0	NULL	NULL	scene/s_351.bmp	NULL	NULL	NULL	NULL	NULL	NULL	Repeat	FFSFFFSFFSSFSFSSSFSS	NULL	NULL	NULL	TrialProc	Irrelevant	BlockList	1	2	0	184753	10	184263	2	885	185148
TRSEscan	1181	3	60.001	1	-1285257081	1/10/2011	18:16:20	1	BlockProc	SessionList	2	2	1	22	NULL	NULL	NULL	NULL	22	2	22		NULL	NULL	NULL	Categorize			NULL	NULL	NULL	NULL		206153	204263		NULL	NULL	NULL	NULL	NULL	NULL			NULL	NULL	NULL	FeedbackProc		BlockList	NULL	NULL	NULL	NULL	NULL	NULL	NULL	NULL	NULL
TRSEscan	1181	3	60.001	1	-1285257081	1/10/2011	18:16:20	2	BlockProc	SessionList	2	2	2	1	-999999	210219	10	206263	1	3	23		1	2	1342	Both			NULL	NULL	NULL	NULL		NULL	NULL		225203	1	212580	0	226203	225213			0	228103	226213	InstrProc		BlockList	NULL	NULL	NULL	NULL	NULL	NULL	NULL	NULL	NULL
TRSEscan	1181	3	60.001	1	-1285257081	1/10/2011	18:16:20	2	BlockProc	SessionList	2	2	2	2	NULL	NULL	NULL	NULL	2	3	24	Faces	NULL	NULL	NULL	Both	1	4390	0	233102	10	228812	0	NULL	NULL	face/m_068.bmp	NULL	NULL	NULL	NULL	NULL	NULL	Novel	FFSFFFSFFSSFSFSSSFSS	NULL	NULL	NULL	TrialProc	Relevant	BlockList	1	1	0	228702	9	228212	1	2015	230227
TRSEscan	1181	3	60.001	1	-1285257081	1/10/2011	18:16:20	2	BlockProc	SessionList	2	2	2	3	NULL	NULL	NULL	NULL	3	3	25	Faces	NULL	NULL	NULL	Both	1	2390	0	236102	10	233812	0	NULL	NULL	face/m_070.bmp	NULL	NULL	NULL	NULL	NULL	NULL	Novel	FFSFFFSFFSSFSFSSSFSS	NULL	NULL	NULL	TrialProc	Relevant	BlockList	0	1	0	233702	10	233212	2	863	234075
TRSEscan	1181	3	60.001	1	-1285257081	1/10/2011	18:16:20	2	BlockProc	SessionList	2	2	2	4	NULL	NULL	NULL	NULL	4	3	26	Scenes	NULL	NULL	NULL	Both	1	2390	0	239102	10	236812	2	NULL	NULL	scene/s_342.bmp	NULL	NULL	NULL	NULL	NULL	NULL	Novel	FFSFFFSFFSSFSFSSSFSS	NULL	NULL	NULL	TrialProc	Relevant	BlockList	1	1	0	236702	10	236212	1	2223	238435
TRSEscan	1181	3	60.001	1	-1285257081	1/10/2011	18:16:20	2	BlockProc	SessionList	2	2	2	5	NULL	NULL	NULL	NULL	5	3	27	Faces	NULL	NULL	NULL	Both	1	6390	0	246102	10	239812	1	NULL	NULL	face/m_076.bmp	NULL	NULL	NULL	NULL	NULL	NULL	Novel	FFSFFFSFFSSFSFSSSFSS	NULL	NULL	NULL	TrialProc	Relevant	BlockList	1	1	0	239702	10	239212	1	2695	241907
TRSEscan	1181	3	60.001	1	-1285257081	1/10/2011	18:16:20	2	BlockProc	SessionList	2	2	2	6	NULL	NULL	NULL	NULL	6	3	28	Faces	NULL	NULL	NULL	Both	2	4390	0	251102	10	246812	0	NULL	NULL	face/m_076.bmp	NULL	NULL	NULL	NULL	NULL	NULL	Repeat	FFSFFFSFFSSFSFSSSFSS	NULL	NULL	NULL	TrialProc	Relevant	BlockList	1	2	0	246702	10	246212	2	2487	248699
TRSEscan	1181	3	60.001	1	-1285257081	1/10/2011	18:16:20	2	BlockProc	SessionList	2	2	2	7	NULL	NULL	NULL	NULL	7	3	29	Faces	NULL	NULL	NULL	Both	1	6390	0	258102	10	251812	0	NULL	NULL	face/f_126.bmp	NULL	NULL	NULL	NULL	NULL	NULL	Novel	FFSFFFSFFSSFSFSSSFSS	NULL	NULL	NULL	TrialProc	Relevant	BlockList	1	1	0	251702	10	251212	1	1431	252643
TRSEscan	1181	3	60.001	1	-1285257081	1/10/2011	18:16:20	2	BlockProc	SessionList	2	2	2	8	NULL	NULL	NULL	NULL	8	3	30	Scenes	NULL	NULL	NULL	Both	1	2390	0	261102	10	258812	3	NULL	NULL	scene/s_171.bmp	NULL	NULL	NULL	NULL	NULL	NULL	Novel	FFSFFFSFFSSFSFSSSFSS	NULL	NULL	NULL	TrialProc	Relevant	BlockList	1	1	0	258702	10	258212	1	1455	259667
TRSEscan	1181	3	60.001	1	-1285257081	1/10/2011	18:16:20	2	BlockProc	SessionList	2	2	2	9	NULL	NULL	NULL	NULL	9	3	31	Faces	NULL	NULL	NULL	Both	1	4390	0	266102	10	261812	1	NULL	NULL	face/m_056.bmp	NULL	NULL	NULL	NULL	NULL	NULL	Novel	FFSFFFSFFSSFSFSSSFSS	NULL	NULL	NULL	TrialProc	Relevant	BlockList	1	1	0	261702	10	261212	1	1103	262315
TRSEscan	1181	3	60.001	1	-1285257081	1/10/2011	18:16:20	2	BlockProc	SessionList	2	2	2	10	NULL	NULL	NULL	NULL	10	3	32	Faces	NULL	NULL	NULL	Both	2	6390	0	273102	10	266812	0	NULL	NULL	face/m_056.bmp	NULL	NULL	NULL	NULL	NULL	NULL	Repeat	FFSFFFSFFSSFSFSSSFSS	NULL	NULL	NULL	TrialProc	Relevant	BlockList	1	2	0	266702	10	266212	2	1855	268067
TRSEscan	1181	3	60.001	1	-1285257081	1/10/2011	18:16:20	2	BlockProc	SessionList	2	2	2	11	NULL	NULL	NULL	NULL	11	3	33	Scenes	NULL	NULL	NULL	Both	1	4390	0	278102	10	273812	2	NULL	NULL	scene/s_395.bmp	NULL	NULL	NULL	NULL	NULL	NULL	Novel	FFSFFFSFFSSFSFSSSFSS	NULL	NULL	NULL	TrialProc	Relevant	BlockList	1	1	0	273702	10	273212	1	1078	274290
TRSEscan	1181	3	60.001	1	-1285257081	1/10/2011	18:16:20	2	BlockProc	SessionList	2	2	2	12	NULL	NULL	NULL	NULL	12	3	34	Scenes	NULL	NULL	NULL	Both	2	2390	0	281102	10	278812	0	NULL	NULL	scene/s_395.bmp	NULL	NULL	NULL	NULL	NULL	NULL	Repeat	FFSFFFSFFSSFSFSSSFSS	NULL	NULL	NULL	TrialProc	Relevant	BlockList	0	2	0	278702	10	278212	1	1150	279362
TRSEscan	1181	3	60.001	1	-1285257081	1/10/2011	18:16:20	2	BlockProc	SessionList	2	2	2	13	NULL	NULL	NULL	NULL	13	3	35	Faces	NULL	NULL	NULL	Both	2	4390	0	286102	10	281812	2	NULL	NULL	face/m_056.bmp	NULL	NULL	NULL	NULL	NULL	NULL	Repeat	FFSFFFSFFSSFSFSSSFSS	NULL	NULL	NULL	TrialProc	Relevant	BlockList	0	2	0	281702	10	281212	1	702	281914
TRSEscan	1181	3	60.001	1	-1285257081	1/10/2011	18:16:20	2	BlockProc	SessionList	2	2	2	14	NULL	NULL	NULL	NULL	14	3	36	Scenes	NULL	NULL	NULL	Both	1	2390	0	289102	10	286812	1	NULL	NULL	scene/s_391.bmp	NULL	NULL	NULL	NULL	NULL	NULL	Novel	FFSFFFSFFSSFSFSSSFSS	NULL	NULL	NULL	TrialProc	Relevant	BlockList	1	1	0	286702	10	286212	1	1030	287242
TRSEscan	1181	3	60.001	1	-1285257081	1/10/2011	18:16:20	2	BlockProc	SessionList	2	2	2	15	NULL	NULL	NULL	NULL	15	3	37	Faces	NULL	NULL	NULL	Both	1	6390	0	296102	10	289812	1	NULL	NULL	face/m_075.bmp	NULL	NULL	NULL	NULL	NULL	NULL	Novel	FFSFFFSFFSSFSFSSSFSS	NULL	NULL	NULL	TrialProc	Relevant	BlockList	1	1	0	289702	10	289212	1	1886	291098
TRSEscan	1181	3	60.001	1	-1285257081	1/10/2011	18:16:20	2	BlockProc	SessionList	2	2	2	16	NULL	NULL	NULL	NULL	16	3	38	Scenes	NULL	NULL	NULL	Both	1	4390	0	301102	10	296812	1	NULL	NULL	scene/s_251.bmp	NULL	NULL	NULL	NULL	NULL	NULL	Novel	FFSFFFSFFSSFSFSSSFSS	NULL	NULL	NULL	TrialProc	Relevant	BlockList	0	1	0	296702	10	296212	2	1094	297306
TRSEscan	1181	3	60.001	1	-1285257081	1/10/2011	18:16:20	2	BlockProc	SessionList	2	2	2	17	NULL	NULL	NULL	NULL	17	3	39	Scenes	NULL	NULL	NULL	Both	2	6390	0	308101	10	301811	0	NULL	NULL	scene/s_251.bmp	NULL	NULL	NULL	NULL	NULL	NULL	Repeat	FFSFFFSFFSSFSFSSSFSS	NULL	NULL	NULL	TrialProc	Relevant	BlockList	0	2	0	301701	9	301211		0	0
TRSEscan	1181	3	60.001	1	-1285257081	1/10/2011	18:16:20	2	BlockProc	SessionList	2	2	2	18	NULL	NULL	NULL	NULL	18	3	40	Scenes	NULL	NULL	NULL	Both	2	2390	0	311101	10	308811	0	NULL	NULL	scene/s_251.bmp	NULL	NULL	NULL	NULL	NULL	NULL	Repeat	FFSFFFSFFSSFSFSSSFSS	NULL	NULL	NULL	TrialProc	Relevant	BlockList	0	2	0	308701	10	308211	1	1511	309722
TRSEscan	1181	3	60.001	1	-1285257081	1/10/2011	18:16:20	2	BlockProc	SessionList	2	2	2	19	NULL	NULL	NULL	NULL	19	3	41	Faces	NULL	NULL	NULL	Both	2	2390	0	314101	10	311811	3	NULL	NULL	face/m_075.bmp	NULL	NULL	NULL	NULL	NULL	NULL	Repeat	FFSFFFSFFSSFSFSSSFSS	NULL	NULL	NULL	TrialProc	Relevant	BlockList	1	2	0	311701	10	311211	2	2791	314002
TRSEscan	1181	3	60.001	1	-1285257081	1/10/2011	18:16:20	2	BlockProc	SessionList	2	2	2	20	NULL	NULL	NULL	NULL	20	3	42	Scenes	NULL	NULL	NULL	Both	1	4390	0	319101	10	314811	1	NULL	NULL	scene/s_036.bmp	NULL	NULL	NULL	NULL	NULL	NULL	Novel	FFSFFFSFFSSFSFSSSFSS	NULL	NULL	NULL	TrialProc	Relevant	BlockList	1	1	0	314701	10	314211	1	1775	315986
TRSEscan	1181	3	60.001	1	-1285257081	1/10/2011	18:16:20	2	BlockProc	SessionList	2	2	2	21	NULL	NULL	NULL	NULL	21	3	43	Scenes	NULL	NULL	NULL	Both	2	6390	0	326101	10	319811	0	NULL	NULL	scene/s_036.bmp	NULL	NULL	NULL	NULL	NULL	NULL	Repeat	FFSFFFSFFSSFSFSSSFSS	NULL	NULL	NULL	TrialProc	Relevant	BlockList	1	2	0	319701	10	319211	2	983	320194
TRSEscan	1181	3	60.001	1	-1285257081	1/10/2011	18:16:20	2	BlockProc	SessionList	2	2	2	22	NULL	NULL	NULL	NULL	22	3	44		NULL	NULL	NULL	Both			NULL	NULL	NULL	NULL		341101	339211		NULL	NULL	NULL	NULL	NULL	NULL			NULL	NULL	NULL	FeedbackProc		BlockList	NULL	NULL	NULL	NULL	NULL	NULL	NULL	NULL	NULL
TRSEscan	1181	3	60.001	1	-1285257081	1/10/2011	18:16:20	3	BlockProc	SessionList	2	2	3	1	-999999	345250	10	341211	1	4	45		1	2	1141	Faces			NULL	NULL	NULL	NULL		NULL	NULL		361681	1	347412	0	362684	361694			0	364584	362694	InstrProc		BlockList	NULL	NULL	NULL	NULL	NULL	NULL	NULL	NULL	NULL
TRSEscan	1181	3	60.001	1	-1285257081	1/10/2011	18:16:20	3	BlockProc	SessionList	2	2	3	2	NULL	NULL	NULL	NULL	2	4	46	Faces	NULL	NULL	NULL	Faces	1	4390	0	369584	10	365294	0	NULL	NULL	face/m_065.bmp	NULL	NULL	NULL	NULL	NULL	NULL	Novel	FFSFFFSFFSSFSFSSSFSS	NULL	NULL	NULL	TrialProc	Relevant	BlockList	1	1	0	365184	10	364694	1	2347	367041
TRSEscan	1181	3	60.001	1	-1285257081	1/10/2011	18:16:20	3	BlockProc	SessionList	2	2	3	3	NULL	NULL	NULL	NULL	3	4	47	Faces	NULL	NULL	NULL	Faces	1	2390	0	372584	10	370294	0	NULL	NULL	face/f_022.bmp	NULL	NULL	NULL	NULL	NULL	NULL	Novel	FFSFFFSFFSSFSFSSSFSS	NULL	NULL	NULL	TrialProc	Relevant	BlockList	0	1	0	370184	10	369694	2	1011	370705
TRSEscan	1181	3	60.001	1	-1285257081	1/10/2011	18:16:20	3	BlockProc	SessionList	2	2	3	4	NULL	NULL	NULL	NULL	4	4	48	Scenes	NULL	NULL	NULL	Faces	1	2390	0	375584	10	373294	2	NULL	NULL	scene/s_311.bmp	NULL	NULL	NULL	NULL	NULL	NULL	Novel	FFSFFFSFFSSFSFSSSFSS	NULL	NULL	NULL	TrialProc	Irrelevant	BlockList	1	1	0	373184	10	372694	1	1299	373993
TRSEscan	1181	3	60.001	1	-1285257081	1/10/2011	18:16:20	3	BlockProc	SessionList	2	2	3	5	NULL	NULL	NULL	NULL	5	4	49	Faces	NULL	NULL	NULL	Faces	1	6390	0	382584	10	376294	1	NULL	NULL	face/f_008.bmp	NULL	NULL	NULL	NULL	NULL	NULL	Novel	FFSFFFSFFSSFSFSSSFSS	NULL	NULL	NULL	TrialProc	Relevant	BlockList	1	1	0	376184	10	375694	1	1947	377641
TRSEscan	1181	3	60.001	1	-1285257081	1/10/2011	18:16:20	3	BlockProc	SessionList	2	2	3	6	NULL	NULL	NULL	NULL	6	4	50	Faces	NULL	NULL	NULL	Faces	2	4390	0	387584	10	383294	0	NULL	NULL	face/f_008.bmp	NULL	NULL	NULL	NULL	NULL	NULL	Repeat	FFSFFFSFFSSFSFSSSFSS	NULL	NULL	NULL	TrialProc	Relevant	BlockList	1	2	0	383184	10	382694	2	811	383505
TRSEscan	1181	3	60.001	1	-1285257081	1/10/2011	18:16:20	3	BlockProc	SessionList	2	2	3	7	NULL	NULL	NULL	NULL	7	4	51	Faces	NULL	NULL	NULL	Faces	1	6390	0	394584	10	388294	0	NULL	NULL	face/f_035.bmp	NULL	NULL	NULL	NULL	NULL	NULL	Novel	FFSFFFSFFSSFSFSSSFSS	NULL	NULL	NULL	TrialProc	Relevant	BlockList	1	1	0	388184	10	387694	1	1147	388841
TRSEscan	1181	3	60.001	1	-1285257081	1/10/2011	18:16:20	3	BlockProc	SessionList	2	2	3	8	NULL	NULL	NULL	NULL	8	4	52	Scenes	NULL	NULL	NULL	Faces	1	2390	0	397584	10	395294	3	NULL	NULL	scene/s_389.bmp	NULL	NULL	NULL	NULL	NULL	NULL	Novel	FFSFFFSFFSSFSFSSSFSS	NULL	NULL	NULL	TrialProc	Irrelevant	BlockList	1	1	0	395184	10	394694	1	1123	395817
TRSEscan	1181	3	60.001	1	-1285257081	1/10/2011	18:16:20	3	BlockProc	SessionList	2	2	3	9	NULL	NULL	NULL	NULL	9	4	53	Faces	NULL	NULL	NULL	Faces	1	4390	0	402583	9	398293	1	NULL	NULL	face/m_121.bmp	NULL	NULL	NULL	NULL	NULL	NULL	Novel	FFSFFFSFFSSFSFSSSFSS	NULL	NULL	NULL	TrialProc	Relevant	BlockList	1	1	0	398184	10	397694	1	1451	399145
TRSEscan	1181	3	60.001	1	-1285257081	1/10/2011	18:16:20	3	BlockProc	SessionList	2	2	3	10	NULL	NULL	NULL	NULL	10	4	54	Faces	NULL	NULL	NULL	Faces	2	6390	0	409583	10	403293	0	NULL	NULL	face/m_121.bmp	NULL	NULL	NULL	NULL	NULL	NULL	Repeat	FFSFFFSFFSSFSFSSSFSS	NULL	NULL	NULL	TrialProc	Relevant	BlockList	1	2	0	403183	10	402693	2	820	403513
TRSEscan	1181	3	60.001	1	-1285257081	1/10/2011	18:16:20	3	BlockProc	SessionList	2	2	3	11	NULL	NULL	NULL	NULL	11	4	55	Scenes	NULL	NULL	NULL	Faces	1	4390	0	414583	10	410293	2	NULL	NULL	scene/s_177.bmp	NULL	NULL	NULL	NULL	NULL	NULL	Novel	FFSFFFSFFSSFSFSSSFSS	NULL	NULL	NULL	TrialProc	Irrelevant	BlockList	1	1	0	410183	10	409693	1	1180	410873
TRSEscan	1181	3	60.001	1	-1285257081	1/10/2011	18:16:20	3	BlockProc	SessionList	2	2	3	12	NULL	NULL	NULL	NULL	12	4	56	Scenes	NULL	NULL	NULL	Faces	1	2390	0	417583	10	415293	0	NULL	NULL	scene/s_177.bmp	NULL	NULL	NULL	NULL	NULL	NULL	Repeat	FFSFFFSFFSSFSFSSSFSS	NULL	NULL	NULL	TrialProc	Irrelevant	BlockList	0	1	0	415183	10	414693	2	1228	415921
TRSEscan	1181	3	60.001	1	-1285257081	1/10/2011	18:16:20	3	BlockProc	SessionList	2	2	3	13	NULL	NULL	NULL	NULL	13	4	57	Faces	NULL	NULL	NULL	Faces	2	4390	0	422583	10	418293	2	NULL	NULL	face/m_121.bmp	NULL	NULL	NULL	NULL	NULL	NULL	Repeat	FFSFFFSFFSSFSFSSSFSS	NULL	NULL	NULL	TrialProc	Relevant	BlockList	1	2	0	418183	10	417693	2	924	418617
TRSEscan	1181	3	60.001	1	-1285257081	1/10/2011	18:16:20	3	BlockProc	SessionList	2	2	3	14	NULL	NULL	NULL	NULL	14	4	58	Scenes	NULL	NULL	NULL	Faces	1	2390	0	425583	10	423293	1	NULL	NULL	scene/s_028.bmp	NULL	NULL	NULL	NULL	NULL	NULL	Novel	FFSFFFSFFSSFSFSSSFSS	NULL	NULL	NULL	TrialProc	Irrelevant	BlockList	1	1	0	423183	10	422693	1	843	423536
TRSEscan	1181	3	60.001	1	-1285257081	1/10/2011	18:16:20	3	BlockProc	SessionList	2	2	3	15	NULL	NULL	NULL	NULL	15	4	59	Faces	NULL	NULL	NULL	Faces	1	6390	0	432583	10	426293	1	NULL	NULL	face/f_007.bmp	NULL	NULL	NULL	NULL	NULL	NULL	Novel	FFSFFFSFFSSFSFSSSFSS	NULL	NULL	NULL	TrialProc	Relevant	BlockList	1	1	0	426183	10	425693	1	2235	427928
TRSEscan	1181	3	60.001	1	-1285257081	1/10/2011	18:16:20	3	BlockProc	SessionList	2	2	3	16	NULL	NULL	NULL	NULL	16	4	60	Scenes	NULL	NULL	NULL	Faces	1	4390	0	437583	10	433293	1	NULL	NULL	scene/s_320.bmp	NULL	NULL	NULL	NULL	NULL	NULL	Novel	FFSFFFSFFSSFSFSSSFSS	NULL	NULL	NULL	TrialProc	Irrelevant	BlockList	1	1	0	433183	10	432693	1	1611	434304
TRSEscan	1181	3	60.001	1	-1285257081	1/10/2011	18:16:20	3	BlockProc	SessionList	2	2	3	17	NULL	NULL	NULL	NULL	17	4	61	Scenes	NULL	NULL	NULL	Faces	1	6390	0	444583	10	438293	0	NULL	NULL	scene/s_320.bmp	NULL	NULL	NULL	NULL	NULL	NULL	Repeat	FFSFFFSFFSSFSFSSSFSS	NULL	NULL	NULL	TrialProc	Irrelevant	BlockList	0	1	0	438183	10	437693	2	1107	438800
TRSEscan	1181	3	60.001	1	-1285257081	1/10/2011	18:16:20	3	BlockProc	SessionList	2	2	3	18	NULL	NULL	NULL	NULL	18	4	62	Scenes	NULL	NULL	NULL	Faces	1	2390	0	447583	10	445293	0	NULL	NULL	scene/s_320.bmp	NULL	NULL	NULL	NULL	NULL	NULL	Repeat	FFSFFFSFFSSFSFSSSFSS	NULL	NULL	NULL	TrialProc	Irrelevant	BlockList	0	1	0	445183	10	444693	2	851	445544
TRSEscan	1181	3	60.001	1	-1285257081	1/10/2011	18:16:20	3	BlockProc	SessionList	2	2	3	19	NULL	NULL	NULL	NULL	19	4	63	Faces	NULL	NULL	NULL	Faces	2	2390	0	450583	10	448293	3	NULL	NULL	face/f_007.bmp	NULL	NULL	NULL	NULL	NULL	NULL	Repeat	FFSFFFSFFSSFSFSSSFSS	NULL	NULL	NULL	TrialProc	Relevant	BlockList	0	2	0	448183	10	447693	1	1123	448816
TRSEscan	1181	3	60.001	1	-1285257081	1/10/2011	18:16:20	3	BlockProc	SessionList	2	2	3	20	NULL	NULL	NULL	NULL	20	4	64	Scenes	NULL	NULL	NULL	Faces	1	4390	0	455583	10	451293	1	NULL	NULL	scene/s_401.bmp	NULL	NULL	NULL	NULL	NULL	NULL	Novel	FFSFFFSFFSSFSFSSSFSS	NULL	NULL	NULL	TrialProc	Irrelevant	BlockList	1	1	0	451183	10	450693	1	1587	452280
TRSEscan	1181	3	60.001	1	-1285257081	1/10/2011	18:16:20	3	BlockProc	SessionList	2	2	3	21	NULL	NULL	NULL	NULL	21	4	65	Scenes	NULL	NULL	NULL	Faces	1	6390	0	462583	10	456293	0	NULL	NULL	scene/s_401.bmp	NULL	NULL	NULL	NULL	NULL	NULL	Repeat	FFSFFFSFFSSFSFSSSFSS	NULL	NULL	NULL	TrialProc	Irrelevant	BlockList	0	1	0	456183	10	455693	2	931	456624
TRSEscan	1181	3	60.001	1	-1285257081	1/10/2011	18:16:20	3	BlockProc	SessionList	2	2	3	22	NULL	NULL	NULL	NULL	22	4	66		NULL	NULL	NULL	Faces			NULL	NULL	NULL	NULL		477582	475692		NULL	NULL	NULL	NULL	NULL	NULL			NULL	NULL	NULL	FeedbackProc		BlockList	NULL	NULL	NULL	NULL	NULL	NULL	NULL	NULL	NULL
TRSEscan	1181	3	60.001	1	-1285257081	1/10/2011	18:16:20	4	BlockProc	SessionList	2	2	4	1	-999999	483880	10	477692	1	5	67		1	2	1852	Scenes			NULL	NULL	NULL	NULL		NULL	NULL		497232	1	486760	0	498232	497242			0	500132	498242	InstrProc		BlockList	NULL	NULL	NULL	NULL	NULL	NULL	NULL	NULL	NULL
TRSEscan	1181	3	60.001	1	-1285257081	1/10/2011	18:16:20	4	BlockProc	SessionList	2	2	4	2	NULL	NULL	NULL	NULL	2	5	68	Faces	NULL	NULL	NULL	Scenes	1	4390	0	505132	10	500842	0	NULL	NULL	face/m_118.bmp	NULL	NULL	NULL	NULL	NULL	NULL	Novel	FFSFFFSFFSSFSFSSSFSS	NULL	NULL	NULL	TrialProc	Irrelevant	BlockList	1	1	0	500732	10	500242	1	1501	501743
TRSEscan	1181	3	60.001	1	-1285257081	1/10/2011	18:16:20	4	BlockProc	SessionList	2	2	4	3	NULL	NULL	NULL	NULL	3	5	69	Faces	NULL	NULL	NULL	Scenes	1	2390	0	508132	10	505842	0	NULL	NULL	face/f_132.bmp	NULL	NULL	NULL	NULL	NULL	NULL	Novel	FFSFFFSFFSSFSFSSSFSS	NULL	NULL	NULL	TrialProc	Irrelevant	BlockList	1	1	0	505732	10	505242	1	757	505999
TRSEscan	1181	3	60.001	1	-1285257081	1/10/2011	18:16:20	4	BlockProc	SessionList	2	2	4	4	NULL	NULL	NULL	NULL	4	5	70	Scenes	NULL	NULL	NULL	Scenes	1	2390	0	511132	10	508842	2	NULL	NULL	scene/s_064.bmp	NULL	NULL	NULL	NULL	NULL	NULL	Novel	FFSFFFSFFSSFSFSSSFSS	NULL	NULL	NULL	TrialProc	Relevant	BlockList	1	1	0	508732	10	508242	1	1157	509399
TRSEscan	1181	3	60.001	1	-1285257081	1/10/2011	18:16:20	4	BlockProc	SessionList	2	2	4	5	NULL	NULL	NULL	NULL	5	5	71	Faces	NULL	NULL	NULL	Scenes	1	6390	0	518132	10	511842	1	NULL	NULL	face/f_017.bmp	NULL	NULL	NULL	NULL	NULL	NULL	Novel	FFSFFFSFFSSFSFSSSFSS	NULL	NULL	NULL	TrialProc	Irrelevant	BlockList	1	1	0	511732	10	511242	1	573	511815
TRSEscan	1181	3	60.001	1	-1285257081	1/10/2011	18:16:20	4	BlockProc	SessionList	2	2	4	6	NULL	NULL	NULL	NULL	6	5	72	Faces	NULL	NULL	NULL	Scenes	1	4390	0	523132	10	518842	0	NULL	NULL	face/f_017.bmp	NULL	NULL	NULL	NULL	NULL	NULL	Repeat	FFSFFFSFFSSFSFSSSFSS	NULL	NULL	NULL	TrialProc	Irrelevant	BlockList	1	1	0	518732	10	518242	1	981	519223
TRSEscan	1181	3	60.001	1	-1285257081	1/10/2011	18:16:20	4	BlockProc	SessionList	2	2	4	7	NULL	NULL	NULL	NULL	7	5	73	Faces	NULL	NULL	NULL	Scenes	1	6390	0	530132	10	523842	0	NULL	NULL	face/m_110.bmp	NULL	NULL	NULL	NULL	NULL	NULL	Novel	FFSFFFSFFSSFSFSSSFSS	NULL	NULL	NULL	TrialProc	Irrelevant	BlockList	1	1	0	523732	10	523242	1	925	524167
TRSEscan	1181	3	60.001	1	-1285257081	1/10/2011	18:16:20	4	BlockProc	SessionList	2	2	4	8	NULL	NULL	NULL	NULL	8	5	74	Scenes	NULL	NULL	NULL	Scenes	1	2390	0	533132	10	530842	3	NULL	NULL	scene/s_289.bmp	NULL	NULL	NULL	NULL	NULL	NULL	Novel	FFSFFFSFFSSFSFSSSFSS	NULL	NULL	NULL	TrialProc	Relevant	BlockList	0	1	0	530732	10	530242		0	0
TRSEscan	1181	3	60.001	1	-1285257081	1/10/2011	18:16:20	4	BlockProc	SessionList	2	2	4	9	NULL	NULL	NULL	NULL	9	5	75	Faces	NULL	NULL	NULL	Scenes	1	4390	0	538132	10	533842	1	NULL	NULL	face/m_001.bmp	NULL	NULL	NULL	NULL	NULL	NULL	Novel	FFSFFFSFFSSFSFSSSFSS	NULL	NULL	NULL	TrialProc	Irrelevant	BlockList	1	1	0	533732	10	533242	1	901	534143
TRSEscan	1181	3	60.001	1	-1285257081	1/10/2011	18:16:20	4	BlockProc	SessionList	2	2	4	10	NULL	NULL	NULL	NULL	10	5	76	Faces	NULL	NULL	NULL	Scenes	1	6390	0	545132	10	538842	0	NULL	NULL	face/m_001.bmp	NULL	NULL	NULL	NULL	NULL	NULL	Repeat	FFSFFFSFFSSFSFSSSFSS	NULL	NULL	NULL	TrialProc	Irrelevant	BlockList	1	1	0	538732	10	538242	1	1021	539263
TRSEscan	1181	3	60.001	1	-1285257081	1/10/2011	18:16:20	4	BlockProc	SessionList	2	2	4	11	NULL	NULL	NULL	NULL	11	5	77	Scenes	NULL	NULL	NULL	Scenes	1	4390	0	550131	10	545841	2	NULL	NULL	scene/s_259.bmp	NULL	NULL	NULL	NULL	NULL	NULL	Novel	FFSFFFSFFSSFSFSSSFSS	NULL	NULL	NULL	TrialProc	Relevant	BlockList	1	1	0	545731	9	545241	1	1286	546527
TRSEscan	1181	3	60.001	1	-1285257081	1/10/2011	18:16:20	4	BlockProc	SessionList	2	2	4	12	NULL	NULL	NULL	NULL	12	5	78	Scenes	NULL	NULL	NULL	Scenes	2	2390	0	553131	10	550841	0	NULL	NULL	scene/s_259.bmp	NULL	NULL	NULL	NULL	NULL	NULL	Repeat	FFSFFFSFFSSFSFSSSFSS	NULL	NULL	NULL	TrialProc	Relevant	BlockList	1	2	0	550731	10	550241	2	1038	551279
TRSEscan	1181	3	60.001	1	-1285257081	1/10/2011	18:16:20	4	BlockProc	SessionList	2	2	4	13	NULL	NULL	NULL	NULL	13	5	79	Faces	NULL	NULL	NULL	Scenes	1	4390	0	558131	10	553841	2	NULL	NULL	face/m_001.bmp	NULL	NULL	NULL	NULL	NULL	NULL	Repeat	FFSFFFSFFSSFSFSSSFSS	NULL	NULL	NULL	TrialProc	Irrelevant	BlockList	1	1	0	553731	10	553241	1	798	554039
TRSEscan	1181	3	60.001	1	-1285257081	1/10/2011	18:16:20	4	BlockProc	SessionList	2	2	4	14	NULL	NULL	NULL	NULL	14	5	80	Scenes	NULL	NULL	NULL	Scenes	1	2390	0	561131	10	558841	1	NULL	NULL	scene/s_222.bmp	NULL	NULL	NULL	NULL	NULL	NULL	Novel	FFSFFFSFFSSFSFSSSFSS	NULL	NULL	NULL	TrialProc	Relevant	BlockList	1	1	0	558731	10	558241	1	1406	559647
TRSEscan	1181	3	60.001	1	-1285257081	1/10/2011	18:16:20	4	BlockProc	SessionList	2	2	4	15	NULL	NULL	NULL	NULL	15	5	81	Faces	NULL	NULL	NULL	Scenes	1	6390	0	568131	10	561841	1	NULL	NULL	face/f_094.bmp	NULL	NULL	NULL	NULL	NULL	NULL	Novel	FFSFFFSFFSSFSFSSSFSS	NULL	NULL	NULL	TrialProc	Irrelevant	BlockList	1	1	0	561731	10	561241	1	582	561823
TRSEscan	1181	3	60.001	1	-1285257081	1/10/2011	18:16:20	4	BlockProc	SessionList	2	2	4	16	NULL	NULL	NULL	NULL	16	5	82	Scenes	NULL	NULL	NULL	Scenes	1	4390	0	573131	10	568841	1	NULL	NULL	scene/s_284.bmp	NULL	NULL	NULL	NULL	NULL	NULL	Novel	FFSFFFSFFSSFSFSSSFSS	NULL	NULL	NULL	TrialProc	Relevant	BlockList	1	1	0	568731	10	568241	1	957	569198
TRSEscan	1181	3	60.001	1	-1285257081	1/10/2011	18:16:20	4	BlockProc	SessionList	2	2	4	17	NULL	NULL	NULL	NULL	17	5	83	Scenes	NULL	NULL	NULL	Scenes	2	6390	0	580131	10	573841	0	NULL	NULL	scene/s_284.bmp	NULL	NULL	NULL	NULL	NULL	NULL	Repeat	FFSFFFSFFSSFSFSSSFSS	NULL	NULL	NULL	TrialProc	Relevant	BlockList	1	2	0	573731	10	573241	2	965	574206
TRSEscan	1181	3	60.001	1	-1285257081	1/10/2011	18:16:20	4	BlockProc	SessionList	2	2	4	18	NULL	NULL	NULL	NULL	18	5	84	Scenes	NULL	NULL	NULL	Scenes	2	2390	0	583131	10	580841	0	NULL	NULL	scene/s_284.bmp	NULL	NULL	NULL	NULL	NULL	NULL	Repeat	FFSFFFSFFSSFSFSSSFSS	NULL	NULL	NULL	TrialProc	Relevant	BlockList	1	2	0	580731	10	580241	2	1109	581350
TRSEscan	1181	3	60.001	1	-1285257081	1/10/2011	18:16:20	4	BlockProc	SessionList	2	2	4	19	NULL	NULL	NULL	NULL	19	5	85	Faces	NULL	NULL	NULL	Scenes	1	2390	0	586131	10	583841	3	NULL	NULL	face/f_094.bmp	NULL	NULL	NULL	NULL	NULL	NULL	Repeat	FFSFFFSFFSSFSFSSSFSS	NULL	NULL	NULL	TrialProc	Irrelevant	BlockList	1	1	0	583731	10	583241	1	693	583934
TRSEscan	1181	3	60.001	1	-1285257081	1/10/2011	18:16:20	4	BlockProc	SessionList	2	2	4	20	NULL	NULL	NULL	NULL	20	5	86	Scenes	NULL	NULL	NULL	Scenes	1	4390	0	591131	10	586841	1	NULL	NULL	scene/s_204.bmp	NULL	NULL	NULL	NULL	NULL	NULL	Novel	FFSFFFSFFSSFSFSSSFSS	NULL	NULL	NULL	TrialProc	Relevant	BlockList	1	1	0	586731	10	586241	1	2181	588422
TRSEscan	1181	3	60.001	1	-1285257081	1/10/2011	18:16:20	4	BlockProc	SessionList	2	2	4	21	NULL	NULL	NULL	NULL	21	5	87	Scenes	NULL	NULL	NULL	Scenes	2	6390	0	598131	10	591841	0	NULL	NULL	scene/s_204.bmp	NULL	NULL	NULL	NULL	NULL	NULL	Repeat	FFSFFFSFFSSFSFSSSFSS	NULL	NULL	NULL	TrialProc	Relevant	BlockList	1	2	0	591731	10	591241	2	1077	592318
TRSEscan	1181	3	60.001	1	-1285257081	1/10/2011	18:16:20	4	BlockProc	SessionList	2	2	4	22	NULL	NULL	NULL	NULL	22	5	88		NULL	NULL	NULL	Scenes			NULL	NULL	NULL	NULL		613131	611241		NULL	NULL	NULL	NULL	NULL	NULL			NULL	NULL	NULL	FeedbackProc		BlockList	NULL	NULL	NULL	NULL	NULL	NULL	NULL	NULL	NULL
TRSEscan	1181	4	60.001	1	-28685857	1/10/2011	18:27:10	1	BlockProc	SessionList	2	2	1	1	-999999	71920	1	59136	1	2	1		1	2	1592	Both			NULL	NULL	NULL	NULL		NULL	NULL		82791	1	74536	0	83791	82801			0	85691	83801	InstrProc		BlockList	NULL	NULL	NULL	NULL	NULL	NULL	NULL	NULL	NULL
TRSEscan	1181	4	60.001	1	-28685857	1/10/2011	18:27:10	1	BlockProc	SessionList	2	2	1	2	NULL	NULL	NULL	NULL	2	2	2	Scenes	NULL	NULL	NULL	Both	1	2390	0	88691	10	86401	0	NULL	NULL	scene/s_286.bmp	NULL	NULL	NULL	NULL	NULL	NULL	Novel	SSFSSSFSFSSFFSFFFSFF	NULL	NULL	NULL	TrialProc	Relevant	BlockList	1	1	0	86291	10	85801	1	1214	87015
TRSEscan	1181	4	60.001	1	-28685857	1/10/2011	18:27:10	1	BlockProc	SessionList	2	2	1	3	NULL	NULL	NULL	NULL	3	2	3	Scenes	NULL	NULL	NULL	Both	2	4390	0	93691	10	89401	0	NULL	NULL	scene/s_286.bmp	NULL	NULL	NULL	NULL	NULL	NULL	Repeat	SSFSSSFSFSSFFSFFFSFF	NULL	NULL	NULL	TrialProc	Relevant	BlockList	1	2	0	89291	10	88801	2	734	89535
TRSEscan	1181	4	60.001	1	-28685857	1/10/2011	18:27:10	1	BlockProc	SessionList	2	2	1	4	NULL	NULL	NULL	NULL	4	2	4	Faces	NULL	NULL	NULL	Both	1	6390	0	100691	10	94401	2	NULL	NULL	face/f_019.bmp	NULL	NULL	NULL	NULL	NULL	NULL	Novel	SSFSSSFSFSSFFSFFFSFF	NULL	NULL	NULL	TrialProc	Relevant	BlockList	1	1	0	94291	10	93801	1	1102	94903
TRSEscan	1181	4	60.001	1	-28685857	1/10/2011	18:27:10	1	BlockProc	SessionList	2	2	1	5	NULL	NULL	NULL	NULL	5	2	5	Scenes	NULL	NULL	NULL	Both	2	4390	0	105691	10	101401	1	NULL	NULL	scene/s_286.bmp	NULL	NULL	NULL	NULL	NULL	NULL	Repeat	SSFSSSFSFSSFFSFFFSFF	NULL	NULL	NULL	TrialProc	Relevant	BlockList	1	2	0	101291	10	100801	2	774	101575
TRSEscan	1181	4	60.001	1	-28685857	1/10/2011	18:27:10	1	BlockProc	SessionList	2	2	1	6	NULL	NULL	NULL	NULL	6	2	6	Scenes	NULL	NULL	NULL	Both	1	2390	0	108691	10	106401	0	NULL	NULL	scene/s_135.bmp	NULL	NULL	NULL	NULL	NULL	NULL	Novel	SSFSSSFSFSSFFSFFFSFF	NULL	NULL	NULL	TrialProc	Relevant	BlockList	1	1	0	106291	10	105801	1	774	106575
TRSEscan	1181	4	60.001	1	-28685857	1/10/2011	18:27:10	1	BlockProc	SessionList	2	2	1	7	NULL	NULL	NULL	NULL	7	2	7	Scenes	NULL	NULL	NULL	Both	1	4390	0	113691	10	109401	0	NULL	NULL	scene/s_191.bmp	NULL	NULL	NULL	NULL	NULL	NULL	Novel	SSFSSSFSFSSFFSFFFSFF	NULL	NULL	NULL	TrialProc	Relevant	BlockList	1	1	0	109291	10	108801	1	990	109791
TRSEscan	1181	4	60.001	1	-28685857	1/10/2011	18:27:10	1	BlockProc	SessionList	2	2	1	8	NULL	NULL	NULL	NULL	8	2	8	Faces	NULL	NULL	NULL	Both	2	2390	0	116691	10	114401	3	NULL	NULL	face/f_019.bmp	NULL	NULL	NULL	NULL	NULL	NULL	Repeat	SSFSSSFSFSSFFSFFFSFF	NULL	NULL	NULL	TrialProc	Relevant	BlockList	1	2	0	114291	10	113801	2	1270	115071
TRSEscan	1181	4	60.001	1	-28685857	1/10/2011	18:27:10	1	BlockProc	SessionList	2	2	1	9	NULL	NULL	NULL	NULL	9	2	9	Scenes	NULL	NULL	NULL	Both	2	6390	0	123691	10	117401	1	NULL	NULL	scene/s_191.bmp	NULL	NULL	NULL	NULL	NULL	NULL	Repeat	SSFSSSFSFSSFFSFFFSFF	NULL	NULL	NULL	TrialProc	Relevant	BlockList	1	2	0	117291	10	116801	2	1398	118199
TRSEscan	1181	4	60.001	1	-28685857	1/10/2011	18:27:10	1	BlockProc	SessionList	2	2	1	10	NULL	NULL	NULL	NULL	10	2	10	Faces	NULL	NULL	NULL	Both	2	4390	0	128691	10	124401	1	NULL	NULL	face/f_019.bmp	NULL	NULL	NULL	NULL	NULL	NULL	Repeat	SSFSSSFSFSSFFSFFFSFF	NULL	NULL	NULL	TrialProc	Relevant	BlockList	1	2	0	124291	10	123801	2	2966	126767
TRSEscan	1181	4	60.001	1	-28685857	1/10/2011	18:27:10	1	BlockProc	SessionList	2	2	1	11	NULL	NULL	NULL	NULL	11	2	11	Scenes	NULL	NULL	NULL	Both	1	6390	0	135691	10	129401	1	NULL	NULL	scene/s_367.bmp	NULL	NULL	NULL	NULL	NULL	NULL	Novel	SSFSSSFSFSSFFSFFFSFF	NULL	NULL	NULL	TrialProc	Relevant	BlockList	1	1	0	129291	10	128801	1	726	129527
TRSEscan	1181	4	60.001	1	-28685857	1/10/2011	18:27:10	1	BlockProc	SessionList	2	2	1	12	NULL	NULL	NULL	NULL	12	2	12	Scenes	NULL	NULL	NULL	Both	1	2390	0	138691	10	136401	0	NULL	NULL	scene/s_089.bmp	NULL	NULL	NULL	NULL	NULL	NULL	Novel	SSFSSSFSFSSFFSFFFSFF	NULL	NULL	NULL	TrialProc	Relevant	BlockList	1	1	0	136291	10	135801	1	878	136679
TRSEscan	1181	4	60.001	1	-28685857	1/10/2011	18:27:10	1	BlockProc	SessionList	2	2	1	13	NULL	NULL	NULL	NULL	13	2	13	Faces	NULL	NULL	NULL	Both	1	2390	0	141690	10	139400	2	NULL	NULL	face/m_094.bmp	NULL	NULL	NULL	NULL	NULL	NULL	Novel	SSFSSSFSFSSFFSFFFSFF	NULL	NULL	NULL	TrialProc	Relevant	BlockList	1	1	0	139290	9	138800	1	2838	141638
TRSEscan	1181	4	60.001	1	-28685857	1/10/2011	18:27:10	1	BlockProc	SessionList	2	2	1	14	NULL	NULL	NULL	NULL	14	2	14	Faces	NULL	NULL	NULL	Both	1	6390	0	148690	10	142400	0	NULL	NULL	face/f_125.bmp	NULL	NULL	NULL	NULL	NULL	NULL	Novel	SSFSSSFSFSSFFSFFFSFF	NULL	NULL	NULL	TrialProc	Relevant	BlockList	1	1	0	142290	10	141800	1	1174	142974
TRSEscan	1181	4	60.001	1	-28685857	1/10/2011	18:27:10	1	BlockProc	SessionList	2	2	1	15	NULL	NULL	NULL	NULL	15	2	15	Scenes	NULL	NULL	NULL	Both	1	4390	0	153690	10	149400	2	NULL	NULL	scene/s_197.bmp	NULL	NULL	NULL	NULL	NULL	NULL	Novel	SSFSSSFSFSSFFSFFFSFF	NULL	NULL	NULL	TrialProc	Relevant	BlockList	1	1	0	149290	10	148800	1	774	149574
TRSEscan	1181	4	60.001	1	-28685857	1/10/2011	18:27:10	1	BlockProc	SessionList	2	2	1	16	NULL	NULL	NULL	NULL	16	2	16	Faces	NULL	NULL	NULL	Both	2	6390	0	160690	10	154400	1	NULL	NULL	face/f_125.bmp	NULL	NULL	NULL	NULL	NULL	NULL	Repeat	SSFSSSFSFSSFFSFFFSFF	NULL	NULL	NULL	TrialProc	Relevant	BlockList	0	2	0	154290	10	153800	1	558	154358
TRSEscan	1181	4	60.001	1	-28685857	1/10/2011	18:27:10	1	BlockProc	SessionList	2	2	1	17	NULL	NULL	NULL	NULL	17	2	17	Faces	NULL	NULL	NULL	Both	1	2390	0	163690	10	161400	0	NULL	NULL	face/m_107.bmp	NULL	NULL	NULL	NULL	NULL	NULL	Novel	SSFSSSFSFSSFFSFFFSFF	NULL	NULL	NULL	TrialProc	Relevant	BlockList	1	1	0	161290	10	160800	1	806	161606
TRSEscan	1181	4	60.001	1	-28685857	1/10/2011	18:27:10	1	BlockProc	SessionList	2	2	1	18	NULL	NULL	NULL	NULL	18	2	18	Faces	NULL	NULL	NULL	Both	1	4390	0	168690	10	164400	0	NULL	NULL	face/f_091.bmp	NULL	NULL	NULL	NULL	NULL	NULL	Novel	SSFSSSFSFSSFFSFFFSFF	NULL	NULL	NULL	TrialProc	Relevant	BlockList	1	1	0	164290	10	163800	1	838	164638
TRSEscan	1181	4	60.001	1	-28685857	1/10/2011	18:27:10	1	BlockProc	SessionList	2	2	1	19	NULL	NULL	NULL	NULL	19	2	19	Scenes	NULL	NULL	NULL	Both	2	2390	0	171690	10	169400	3	NULL	NULL	scene/s_197.bmp	NULL	NULL	NULL	NULL	NULL	NULL	Repeat	SSFSSSFSFSSFFSFFFSFF	NULL	NULL	NULL	TrialProc	Relevant	BlockList	0	2	0	169290	10	168800	1	622	169422
TRSEscan	1181	4	60.001	1	-28685857	1/10/2011	18:27:10	1	BlockProc	SessionList	2	2	1	20	NULL	NULL	NULL	NULL	20	2	20	Faces	NULL	NULL	NULL	Both	1	4390	0	176690	10	172400	1	NULL	NULL	face/m_099.bmp	NULL	NULL	NULL	NULL	NULL	NULL	Novel	SSFSSSFSFSSFFSFFFSFF	NULL	NULL	NULL	TrialProc	Relevant	BlockList	0	1	0	172290	10	171800	2	1254	173054
TRSEscan	1181	4	60.001	1	-28685857	1/10/2011	18:27:10	1	BlockProc	SessionList	2	2	1	21	NULL	NULL	NULL	NULL	21	2	21	Faces	NULL	NULL	NULL	Both	2	6390	0	183690	10	177400	0	NULL	NULL	face/m_099.bmp	NULL	NULL	NULL	NULL	NULL	NULL	Repeat	SSFSSSFSFSSFFSFFFSFF	NULL	NULL	NULL	TrialProc	Relevant	BlockList	1	2	0	177290	10	176800	2	790	177590
TRSEscan	1181	4	60.001	1	-28685857	1/10/2011	18:27:10	1	BlockProc	SessionList	2	2	1	22	NULL	NULL	NULL	NULL	22	2	22		NULL	NULL	NULL	Both			NULL	NULL	NULL	NULL		198690	196800		NULL	NULL	NULL	NULL	NULL	NULL			NULL	NULL	NULL	FeedbackProc		BlockList	NULL	NULL	NULL	NULL	NULL	NULL	NULL	NULL	NULL
TRSEscan	1181	4	60.001	1	-28685857	1/10/2011	18:27:10	2	BlockProc	SessionList	2	2	2	1	-999999	204006	10	198800	1	3	23		1	2	1190	Faces			NULL	NULL	NULL	NULL		NULL	NULL		224341	1	206217	0	225339	224349			0	227239	225349	InstrProc		BlockList	NULL	NULL	NULL	NULL	NULL	NULL	NULL	NULL	NULL
TRSEscan	1181	4	60.001	1	-28685857	1/10/2011	18:27:10	2	BlockProc	SessionList	2	2	2	2	NULL	NULL	NULL	NULL	2	3	24	Scenes	NULL	NULL	NULL	Faces	1	2390	0	230239	10	227949	0	NULL	NULL	scene/s_152.bmp	NULL	NULL	NULL	NULL	NULL	NULL	Novel	SSFSSSFSFSSFFSFFFSFF	NULL	NULL	NULL	TrialProc	Irrelevant	BlockList	1	1	0	227839	10	227349	1	2080	229429
TRSEscan	1181	4	60.001	1	-28685857	1/10/2011	18:27:10	2	BlockProc	SessionList	2	2	2	3	NULL	NULL	NULL	NULL	3	3	25	Scenes	NULL	NULL	NULL	Faces	1	4390	0	235239	10	230949	0	NULL	NULL	scene/s_152.bmp	NULL	NULL	NULL	NULL	NULL	NULL	Repeat	SSFSSSFSFSSFFSFFFSFF	NULL	NULL	NULL	TrialProc	Irrelevant	BlockList	1	1	0	230839	10	230349	1	2200	232549
TRSEscan	1181	4	60.001	1	-28685857	1/10/2011	18:27:10	2	BlockProc	SessionList	2	2	2	4	NULL	NULL	NULL	NULL	4	3	26	Faces	NULL	NULL	NULL	Faces	1	6390	0	242239	10	235949	2	NULL	NULL	face/m_013.bmp	NULL	NULL	NULL	NULL	NULL	NULL	Novel	SSFSSSFSFSSFFSFFFSFF	NULL	NULL	NULL	TrialProc	Relevant	BlockList	0	1	0	235839	10	235349	2	744	236093
TRSEscan	1181	4	60.001	1	-28685857	1/10/2011	18:27:10	2	BlockProc	SessionList	2	2	2	5	NULL	NULL	NULL	NULL	5	3	27	Scenes	NULL	NULL	NULL	Faces	1	4390	0	247239	10	242949	1	NULL	NULL	scene/s_152.bmp	NULL	NULL	NULL	NULL	NULL	NULL	Repeat	SSFSSSFSFSSFFSFFFSFF	NULL	NULL	NULL	TrialProc	Irrelevant	BlockList	1	1	0	242839	10	242349	1	1568	243917
TRSEscan	1181	4	60.001	1	-28685857	1/10/2011	18:27:10	2	BlockProc	SessionList	2	2	2	6	NULL	NULL	NULL	NULL	6	3	28	Scenes	NULL	NULL	NULL	Faces	1	2390	0	250239	10	247949	0	NULL	NULL	scene/s_443.bmp	NULL	NULL	NULL	NULL	NULL	NULL	Novel	SSFSSSFSFSSFFSFFFSFF	NULL	NULL	NULL	TrialProc	Irrelevant	BlockList	1	1	0	247839	10	247349	1	872	248221
TRSEscan	1181	4	60.001	1	-28685857	1/10/2011	18:27:10	2	BlockProc	SessionList	2	2	2	7	NULL	NULL	NULL	NULL	7	3	29	Scenes	NULL	NULL	NULL	Faces	1	4390	0	255239	10	250949	0	NULL	NULL	scene/s_194.bmp	NULL	NULL	NULL	NULL	NULL	NULL	Novel	SSFSSSFSFSSFFSFFFSFF	NULL	NULL	NULL	TrialProc	Irrelevant	BlockList	1	1	0	250839	10	250349	1	656	251005
TRSEscan	1181	4	60.001	1	-28685857	1/10/2011	18:27:10	2	BlockProc	SessionList	2	2	2	8	NULL	NULL	NULL	NULL	8	3	30	Faces	NULL	NULL	NULL	Faces	2	2390	0	258239	10	255949	3	NULL	NULL	face/m_013.bmp	NULL	NULL	NULL	NULL	NULL	NULL	Repeat	SSFSSSFSFSSFFSFFFSFF	NULL	NULL	NULL	TrialProc	Relevant	BlockList	0	2	0	255839	10	255349	1	1848	257197
TRSEscan	1181	4	60.001	1	-28685857	1/10/2011	18:27:10	2	BlockProc	SessionList	2	2	2	9	NULL	NULL	NULL	NULL	9	3	31	Scenes	NULL	NULL	NULL	Faces	1	6390	0	265239	10	258949	1	NULL	NULL	scene/s_194.bmp	NULL	NULL	NULL	NULL	NULL	NULL	Repeat	SSFSSSFSFSSFFSFFFSFF	NULL	NULL	NULL	TrialProc	Irrelevant	BlockList	1	1	0	258839	10	258349	1	656	259005
TRSEscan	1181	4	60.001	1	-28685857	1/10/2011	18:27:10	2	BlockProc	SessionList	2	2	2	10	NULL	NULL	NULL	NULL	10	3	32	Faces	NULL	NULL	NULL	Faces	2	4390	0	270239	10	265949	1	NULL	NULL	face/m_013.bmp	NULL	NULL	NULL	NULL	NULL	NULL	Repeat	SSFSSSFSFSSFFSFFFSFF	NULL	NULL	NULL	TrialProc	Relevant	BlockList	1	2	0	265839	10	265349	2	928	266277
TRSEscan	1181	4	60.001	1	-28685857	1/10/2011	18:27:10	2	BlockProc	SessionList	2	2	2	11	NULL	NULL	NULL	NULL	11	3	33	Scenes	NULL	NULL	NULL	Faces	1	6390	0	277239	10	270949	1	NULL	NULL	scene/s_092.bmp	NULL	NULL	NULL	NULL	NULL	NULL	Novel	SSFSSSFSFSSFFSFFFSFF	NULL	NULL	NULL	TrialProc	Irrelevant	BlockList	1	1	0	270839	10	270349	1	808	271157
TRSEscan	1181	4	60.001	1	-28685857	1/10/2011	18:27:10	2	BlockProc	SessionList	2	2	2	12	NULL	NULL	NULL	NULL	12	3	34	Scenes	NULL	NULL	NULL	Faces	1	2390	0	280239	10	277949	0	NULL	NULL	scene/s_199.bmp	NULL	NULL	NULL	NULL	NULL	NULL	Novel	SSFSSSFSFSSFFSFFFSFF	NULL	NULL	NULL	TrialProc	Irrelevant	BlockList	1	1	0	277839	10	277349	1	688	278037
