ExperimentName	Subject	Block	Trial	Category	Condition	Delay	DelayFixation.OffsetTime	DelayFixation.OnsetTime	Distractors	Go.OffsetTime	Go.OnsetTime	Novelty	Relevance	Stim.ACC	Stim.OffsetTime	Stim.OnsetTime	Stim.RTTRSEscan	106	1	1		Faces					74478	73488						TRSEscan	106	1	2	Scenes	Faces	4390	81380	77090	0			Novel	Irrelevant	1	76977	76487	1081TRSEscan	106	1	3	Faces	Faces	2390	84372	82082	1			Novel	Relevant	1	81969	81479	673TRSEscan	106	1	4	Faces	Faces	2390	87370	85080	0			Novel	Relevant	0	84967	84477	571TRSEscan	106	1	5	Scenes	Faces	4390	92368	88078	2			Novel	Irrelevant	1	87965	87475	501TRSEscan	106	1	6	Faces	Faces	6390	99360	93070	1			Repeat	Relevant	1	92957	92467	621TRSEscan	106	1	7	Scenes	Faces	6390	106362	100072	1			Repeat	Irrelevant	1	99959	99469	651TRSEscan	106	1	8	Scenes	Faces	4390	111364	107074	0			Novel	Irrelevant	1	106961	106471	513TRSEscan	106	1	9	Scenes	Faces	2390	114355	112065	0			Repeat	Irrelevant	1	111953	111463	489TRSEscan	106	1	10	Faces	Faces	4390	119354	115064	3			Novel	Relevant	0	114951	114461	618TRSEscan	106	1	11	Scenes	Faces	6390	126346	120056	1			Repeat	Irrelevant	1	119943	119453	522TRSEscan	106	1	12	Scenes	Faces	2390	129347	127057	0			Novel	Irrelevant	1	126944	126454	465TRSEscan	106	1	13	Faces	Faces	4390	134346	130056	2			Repeat	Relevant	1	129943	129453	554TRSEscan	106	1	14	Scenes	Faces	2390	137338	135048	1			Repeat	Irrelevant	1	134935	134445	522TRSEscan	106	1	15	Scenes	Faces	6390	144336	138046	0			Novel	Irrelevant	1	137933	137443	612TRSEscan	106	1	16	Faces	Faces	6390	151338	145048	2			Repeat	Relevant	1	144935	144445	522TRSEscan	106	1	17	Faces	Faces	2390	154340	152050	0			Novel	Relevant	0	151937	151447	688TRSEscan	106	1	18	Faces	Faces	4390	159338	155048	0			Repeat	Relevant	1	154935	154445	594TRSEscan	106	1	19	Scenes	Faces	2390	162330	160040	3			Novel	Irrelevant	1	159927	159437	642TRSEscan	106	1	20	Faces	Faces	6390	169328	163038	1			Novel	Relevant	0	162925	162435	644TRSEscan	106	1	21	Faces	Faces	4390	174330	170040	0			Novel	Relevant	0	169927	169437	586TRSEscan	106	2	1		Scenes					204816	203826						TRSEscan	106	2	2	Scenes	Scenes	4390	211718	207428	0			Novel	Relevant	1	207315	206825	685TRSEscan	106	2	3	Faces	Scenes	2390	214710	212420	1			Novel	Irrelevant	1	212307	211817	1093TRSEscan	106	2	4	Faces	Scenes	2390	217708	215418	0			Novel	Irrelevant	1	215305	214815	951TRSEscan	106	2	5	Scenes	Scenes	4390	222706	218416	2			Novel	Relevant	0	218303	217813	633TRSEscan	106	2	6	Faces	Scenes	6390	229698	223408	1			Repeat	Irrelevant	1	223295	222805	929TRSEscan	106	2	7	Scenes	Scenes	6390	236700	230410	1			Repeat	Relevant	1	230297	229807	503TRSEscan	106	2	8	Scenes	Scenes	4390	241702	237412	0			Novel	Relevant	0	237299	236809	645TRSEscan	106	2	9	Scenes	Scenes	2390	244693	242403	0			Repeat	Relevant	1	242291	241801	581TRSEscan	106	2	10	Faces	Scenes	4390	249692	245402	3			Novel	Irrelevant	1	245289	244799	583TRSEscan	106	2	11	Scenes	Scenes	6390	256684	250394	1			Repeat	Relevant	1	250281	249791	431TRSEscan	106	2	12	Scenes	Scenes	2390	259685	257395	0			Novel	Relevant	0	257282	256792	733TRSEscan	106	2	13	Faces	Scenes	4390	264684	260394	2			Repeat	Irrelevant	1	260281	259791	614TRSEscan	106	2	14	Scenes	Scenes	2390	267676	265386	1			Repeat	Relevant	1	265273	264783	406TRSEscan	106	2	15	Scenes	Scenes	6390	274674	268384	0			Novel	Relevant	0	268271	267781	504TRSEscan	106	2	16	Faces	Scenes	6390	281676	275386	2			Repeat	Irrelevant	1	275273	274783	694TRSEscan	106	2	17	Faces	Scenes	2390	284678	282388	0			Novel	Irrelevant	1	282275	281785	548TRSEscan	106	2	18	Faces	Scenes	4390	289676	285386	0			Repeat	Irrelevant	1	285273	284783	502TRSEscan	106	2	19	Scenes	Scenes	2390	292668	290378	3			Novel	Relevant	0	290265	289775	390TRSEscan	106	2	20	Faces	Scenes	6390	299666	293376	1			Novel	Irrelevant	1	293263	292773	592TRSEscan	106	2	21	Faces	Scenes	4390	304668	300378	0			Novel	Irrelevant	1	300265	299775	462TRSEscan	106	3	1		Categorize					334451	333461						TRSEscan	106	3	2	Scenes	Categorize	4390	341352	337062	0			Novel	Irrelevant	0	336949	336459	1369TRSEscan	106	3	3	Faces	Categorize	2390	344344	342054	1			Novel	Irrelevant	1	341941	341451	1553TRSEscan	106	3	4	Faces	Categorize	2390	347342	345052	0			Novel	Irrelevant	1	344939	344449	2027TRSEscan	106	3	5	Scenes	Categorize	4390	352341	348051	2			Novel	Irrelevant	0	347938	347448	0TRSEscan	106	3	6	Faces	Categorize	6390	359333	353043	1			Repeat	Irrelevant	0	352930	352440	1684TRSEscan	106	3	7	Scenes	Categorize	6390	366334	360044	1			Repeat	Irrelevant	0	359931	359441	1739TRSEscan	106	3	8	Scenes	Categorize	4390	371336	367046	0			Novel	Irrelevant	0	366933	366443	705TRSEscan	106	3	9	Scenes	Categorize	2390	374328	372038	0			Repeat	Irrelevant	0	371925	371435	920TRSEscan	106	3	10	Faces	Categorize	4390	379326	375036	3			Novel	Irrelevant	0	374923	374433	619TRSEscan	106	3	11	Scenes	Categorize	6390	386318	380028	1			Repeat	Irrelevant	0	379915	379425	946TRSEscan	106	3	12	Scenes	Categorize	2390	389320	387030	0			Novel	Irrelevant	0	386917	386427	688TRSEscan	106	3	13	Faces	Categorize	4390	394318	390028	2			Repeat	Irrelevant	1	389915	389425	1122TRSEscan	106	3	14	Scenes	Categorize	2390	397310	395020	1			Repeat	Irrelevant	1	394907	394417	1426TRSEscan	106	3	15	Scenes	Categorize	6390	404308	398018	0			Novel	Irrelevant	1	397905	397415	764TRSEscan	106	3	16	Faces	Categorize	6390	411310	405020	2			Repeat	Irrelevant	1	404907	404417	962TRSEscan	106	3	17	Faces	Categorize	2390	414312	412022	0			Novel	Irrelevant	0	411909	411419	624TRSEscan	106	3	18	Faces	Categorize	4390	419311	415021	0			Repeat	Irrelevant	0	414908	414418	801TRSEscan	106	3	19	Scenes	Categorize	2390	422302	420012	3			Novel	Irrelevant	1	419900	419410	769TRSEscan	106	3	20	Faces	Categorize	6390	429301	423011	1			Novel	Irrelevant	0	422898	422408	851TRSEscan	106	3	21	Faces	Categorize	4390	434303	430013	0			Novel	Irrelevant	0	429899	429409	922TRSEscan	106	4	1		Both					543132	542142						TRSEscan	106	4	2	Scenes	Both	4390	550034	545744	0			Novel	Relevant	1	545631	545141	524TRSEscan	106	4	3	Faces	Both	2390	553026	550736	1			Novel	Relevant	1	550623	550133	892TRSEscan	106	4	4	Faces	Both	2390	556024	553734	0			Novel	Relevant	1	553621	553131	1142TRSEscan	106	4	5	Scenes	Both	4390	561022	556732	2			Novel	Relevant	1	556619	556129	728TRSEscan	106	4	6	Faces	Both	6390	568014	561724	1			Repeat	Relevant	1	561611	561121	952TRSEscan	106	4	7	Scenes	Both	6390	575016	568726	1			Repeat	Relevant	1	568613	568123	1406TRSEscan	106	4	8	Scenes	Both	4390	580018	575728	0			Novel	Relevant	1	575615	575125	636TRSEscan	106	4	9	Scenes	Both	2390	583010	580720	0			Repeat	Relevant	1	580607	580117	956TRSEscan	106	4	10	Faces	Both	4390	588008	583718	3			Novel	Relevant	1	583605	583115	846TRSEscan	106	4	11	Scenes	Both	6390	595000	588710	1			Repeat	Relevant	1	588597	588107	869TRSEscan	106	4	12	Scenes	Both	2390	598002	595712	0			Novel	Relevant	1	595598	595108	844TRSEscan	106	4	13	Faces	Both	4390	603000	598710	2			Repeat	Relevant	1	598597	598107	869TRSEscan	106	4	14	Scenes	Both	2390	605992	603702	1			Repeat	Relevant	1	603589	603099	749TRSEscan	106	4	15	Scenes	Both	6390	612990	606700	0			Novel	Relevant	1	606587	606097	767TRSEscan	106	4	16	Faces	Both	6390	619992	613702	2			Repeat	Relevant	0	613589	613099	1173TRSEscan	106	4	17	Faces	Both	2390	622994	620704	0			Novel	Relevant	1	620591	620101	955TRSEscan	106	4	18	Faces	Both	4390	627992	623702	0			Repeat	Relevant	1	623589	623099	1005TRSEscan	106	4	19	Scenes	Both	2390	630984	628694	3			Novel	Relevant	1	628581	628091	861TRSEscan	106	4	20	Faces	Both	6390	637982	631692	1			Novel	Relevant	1	631579	631089	919TRSEscan	106	4	21	Faces	Both	4390	642984	638694	0			Novel	Relevant	1	638581	638091	1061TRSEscan	106	5	1		Scenes					67328	66338						TRSEscan	106	5	2	Faces	Scenes	2390	72229	69939	0			Novel	Irrelevant	1	69826	69336	486TRSEscan	106	5	3	Faces	Scenes	4390	77227	72937	0			Novel	Irrelevant	1	72824	72334	488TRSEscan	106	5	4	Scenes	Scenes	6390	84219	77929	2			Novel	Relevant	0	77816	77326	712TRSEscan	106	5	5	Faces	Scenes	4390	89221	84931	1			Repeat	Irrelevant	1	84818	84328	422TRSEscan	106	5	6	Faces	Scenes	2390	92213	89923	0			Repeat	Irrelevant	1	89810	89320	478TRSEscan	106	5	7	Faces	Scenes	6390	99211	92921	0			Novel	Irrelevant	1	92808	92318	472TRSEscan	106	5	8	Scenes	Scenes	2390	102213	99923	3			Novel	Relevant	1	99810	99320	598TRSEscan	106	5	9	Scenes	Scenes	4390	107211	102921	0			Repeat	Relevant	1	102808	102318	1096TRSEscan	106	5	10	Faces	Scenes	2390	110203	107913	2			Repeat	Irrelevant	1	107800	107310	440TRSEscan	106	5	11	Scenes	Scenes	4390	115202	110912	1			Repeat	Relevant	1	110799	110309	992TRSEscan	106	5	12	Scenes	Scenes	6390	122193	115903	0			Novel	Relevant	1	115791	115301	568TRSEscan	106	5	13	Faces	Scenes	4390	127195	122905	2			Novel	Irrelevant	1	122792	122302	431TRSEscan	106	5	14	Scenes	Scenes	2390	130187	127897	1			Repeat	Relevant	1	127784	127294	967TRSEscan	106	5	15	Scenes	Scenes	6390	137185	130895	0			Novel	Relevant	1	130782	130292	633TRSEscan	106	5	16	Scenes	Scenes	4390	142187	137897	0			Novel	Relevant	1	137784	137294	639TRSEscan	106	5	17	Faces	Scenes	6390	149179	142889	3			Novel	Irrelevant	1	142776	142286	519TRSEscan	106	5	18	Scenes	Scenes	2390	152181	149891	1			Repeat	Relevant	1	149778	149288	781TRSEscan	106	5	19	Faces	Scenes	2390	155179	152889	1			Repeat	Irrelevant	1	152776	152286	527TRSEscan	106	5	20	Faces	Scenes	6390	162177	155887	0			Novel	Irrelevant	1	155774	155284	553TRSEscan	106	5	21	Scenes	Scenes	4390	167179	162889	2			Novel	Relevant	1	162776	162286	655TRSEscan	106	6	1		Categorize					202791	201801						TRSEscan	106	6	2	Faces	Categorize	2390	207693	205403	0			Novel	Irrelevant	1	205290	204800	540TRSEscan	106	6	3	Faces	Categorize	4390	212691	208401	0			Novel	Irrelevant	1	208288	207798	638TRSEscan	106	6	4	Scenes	Categorize	6390	219683	213393	2			Novel	Irrelevant	0	213280	212790	838TRSEscan	106	6	5	Faces	Categorize	4390	224685	220395	1			Repeat	Irrelevant	0	220282	219792	516TRSEscan	106	6	6	Faces	Categorize	2390	227677	225387	0			Repeat	Irrelevant	0	225274	224784	588TRSEscan	106	6	7	Faces	Categorize	6390	234675	228385	0			Novel	Irrelevant	0	228272	227782	558TRSEscan	106	6	8	Scenes	Categorize	2390	237677	235387	3			Novel	Irrelevant	0	235274	234784	763TRSEscan	106	6	9	Scenes	Categorize	4390	242675	238385	0			Repeat	Irrelevant	0	238272	237782	765TRSEscan	106	6	10	Faces	Categorize	2390	245667	243377	2			Repeat	Irrelevant	1	243264	242774	621TRSEscan	106	6	11	Scenes	Categorize	4390	250665	246375	1			Repeat	Irrelevant	0	246262	245772	655TRSEscan	106	6	12	Scenes	Categorize	6390	257657	251367	0			Novel	Irrelevant	0	251254	250764	839TRSEscan	106	6	13	Faces	Categorize	4390	262659	258369	2			Novel	Irrelevant	0	258256	257766	685TRSEscan	106	6	14	Scenes	Categorize	2390	265651	263361	1			Repeat	Irrelevant	0	263248	262758	637TRSEscan	106	6	15	Scenes	Categorize	6390	272649	266359	0			Novel	Irrelevant	0	266246	265756	503TRSEscan	106	6	16	Scenes	Categorize	4390	277651	273361	0			Novel	Irrelevant	0	273248	272758	469TRSEscan	106	6	17	Faces	Categorize	6390	284643	278353	3			Novel	Irrelevant	1	278240	277750	509TRSEscan	106	6	18	Scenes	Categorize	2390	287644	285354	1			Repeat	Irrelevant	0	285241	284751	652TRSEscan	106	6	19	Faces	Categorize	2390	290643	288353	1			Repeat	Irrelevant	0	288240	287750	477TRSEscan	106	6	20	Faces	Categorize	6390	297641	291351	0			Novel	Irrelevant	0	291238	290748	487TRSEscan	106	6	21	Scenes	Categorize	4390	302643	298353	2			Novel	Irrelevant	0	298240	297750	621TRSEscan	106	7	1		Both					333800	332810						TRSEscan	106	7	2	Faces	Both	2390	338701	336411	0			Novel	Relevant	1	336298	335808	490TRSEscan	106	7	3	Faces	Both	4390	343699	339409	0			Novel	Relevant	0	339296	338806	1020TRSEscan	106	7	4	Scenes	Both	6390	350691	344401	2			Novel	Relevant	1	344288	343798	596TRSEscan	106	7	5	Faces	Both	4390	355693	351403	1			Repeat	Relevant	1	351290	350800	1034TRSEscan	106	7	6	Faces	Both	2390	358685	356395	0			Repeat	Relevant	1	356282	355792	730TRSEscan	106	7	7	Faces	Both	6390	365683	359393	0			Novel	Relevant	1	359280	358790	644TRSEscan	106	7	8	Scenes	Both	2390	368685	366395	3			Novel	Relevant	1	366282	365792	730TRSEscan	106	7	9	Scenes	Both	4390	373683	369393	0			Repeat	Relevant	1	369280	368790	652TRSEscan	106	7	10	Faces	Both	2390	376675	374385	2			Repeat	Relevant	1	374272	373782	939TRSEscan	106	7	11	Scenes	Both	4390	381673	377383	1			Repeat	Relevant	1	377270	376780	822TRSEscan	106	7	12	Scenes	Both	6390	388665	382375	0			Novel	Relevant	1	382262	381772	901TRSEscan	106	7	13	Faces	Both	4390	393667	389377	2			Novel	Relevant	1	389264	388774	827TRSEscan	106	7	14	Scenes	Both	2390	396659	394369	1			Repeat	Relevant	1	394256	393766	907TRSEscan	106	7	15	Scenes	Both	6390	403657	397367	0			Novel	Relevant	1	397254	396764	765TRSEscan	106	7	16	Scenes	Both	4390	408659	404369	0			Novel	Relevant	1	404256	403766	691TRSEscan	106	7	17	Faces	Both	6390	415651	409361	3			Novel	Relevant	1	409248	408758	787TRSEscan	106	7	18	Scenes	Both	2390	418653	416363	1			Repeat	Relevant	1	416250	415760	865TRSEscan	106	7	19	Faces	Both	2390	421651	419361	1			Repeat	Relevant	1	419248	418758	867TRSEscan	106	7	20	Faces	Both	6390	428649	422359	0			Novel	Relevant	1	422246	421756	645TRSEscan	106	7	21	Scenes	Both	4390	433651	429361	2			Novel	Relevant	1	429248	428758	787TRSEscan	106	8	1		Faces					464942	463952						TRSEscan	106	8	2	Faces	Faces	2390	469843	467553	0			Novel	Relevant	1	467440	466950	634TRSEscan	106	8	3	Faces	Faces	4390	474841	470551	0			Novel	Relevant	1	470438	469948	636TRSEscan	106	8	4	Scenes	Faces	6390	481833	475543	2			Novel	Irrelevant	1	475430	474940	652TRSEscan	106	8	5	Faces	Faces	4390	486835	482545	1			Repeat	Relevant	1	482432	481942	770TRSEscan	106	8	6	Faces	Faces	2390	489827	487537	0			Repeat	Relevant	1	487424	486934	586TRSEscan	106	8	7	Faces	Faces	6390	496825	490535	0			Novel	Relevant	1	490422	489932	556TRSEscan	106	8	8	Scenes	Faces	2390	499827	497537	3			Novel	Irrelevant	1	497424	496934	498TRSEscan	106	8	9	Scenes	Faces	4390	504825	500535	0			Repeat	Irrelevant	1	500422	499932	500TRSEscan	106	8	10	Faces	Faces	2390	507817	505527	2			Repeat	Relevant	1	505414	504924	676TRSEscan	106	8	11	Scenes	Faces	4390	512815	508525	1			Repeat	Irrelevant	1	508412	507922	701TRSEscan	106	8	12	Scenes	Faces	6390	519807	513517	0			Novel	Irrelevant	1	513404	512914	517TRSEscan	106	8	13	Faces	Faces	4390	524809	520519	2			Novel	Relevant	1	520406	519916	515TRSEscan	106	8	14	Scenes	Faces	2390	527801	525511	1			Repeat	Irrelevant	1	525398	524908	499TRSEscan	106	8	15	Scenes	Faces	6390	534799	528509	0			Novel	Irrelevant	1	528396	527906	493TRSEscan	106	8	16	Scenes	Faces	4390	539801	535511	0			Novel	Irrelevant	1	535398	534908	475TRSEscan	106	8	17	Faces	Faces	6390	546793	540503	3			Novel	Relevant	1	540390	539900	571TRSEscan	106	8	18	Scenes	Faces	2390	549795	547505	1			Repeat	Irrelevant	1	547392	546902	473TRSEscan	106	8	19	Faces	Faces	2390	552793	550503	1			Repeat	Relevant	1	550390	549900	643TRSEscan	106	8	20	Faces	Faces	6390	559791	553501	0			Novel	Relevant	1	553388	552898	693TRSEscan	106	8	21	Scenes	Faces	4390	564793	560503	2			Novel	Irrelevant	1	560390	559900	531TRSEscan	106	9	1		Categorize					80905	79915						TRSEscan	106	9	2	Faces	Categorize	4390	87806	83516	0			Novel	Irrelevant	1	83403	82913	550TRSEscan	106	9	3	Faces	Categorize	2390	90798	88508	0			Novel	Irrelevant	1	88395	87905	558TRSEscan	106	9	4	Scenes	Categorize	2390	93796	91506	2			Novel	Irrelevant	0	91393	90903	464TRSEscan	106	9	5	Faces	Categorize	6390	100795	94505	1			Novel	Irrelevant	1	94392	93902	497TRSEscan	106	9	6	Faces	Categorize	4390	105796	101506	0			Repeat	Irrelevant	1	101393	100903	512TRSEscan	106	9	7	Faces	Categorize	6390	112788	106498	0			Novel	Irrelevant	1	106385	105895	520TRSEscan	106	9	8	Scenes	Categorize	2390	115790	113500	3			Novel	Irrelevant	1	113387	112897	446TRSEscan	106	9	9	Faces	Categorize	4390	120788	116498	1			Novel	Irrelevant	1	116385	115895	568TRSEscan	106	9	10	Faces	Categorize	6390	127780	121490	0			Repeat	Irrelevant	1	121377	120887	607TRSEscan	106	9	11	Scenes	Categorize	4390	132782	128492	2			Novel	Irrelevant	1	128379	127889	469TRSEscan	106	9	12	Scenes	Categorize	2390	135774	133484	0			Repeat	Irrelevant	1	133371	132881	557TRSEscan	106	9	13	Faces	Categorize	4390	140772	136482	2			Repeat	Irrelevant	1	136369	135879	599TRSEscan	106	9	14	Scenes	Categorize	2390	143764	141474	1			Novel	Irrelevant	1	141361	140871	631TRSEscan	106	9	15	Faces	Categorize	6390	150762	144472	1			Novel	Irrelevant	1	144359	143869	505TRSEscan	106	9	16	Scenes	Categorize	4390	155764	151474	1			Novel	Irrelevant	1	151361	150871	487TRSEscan	106	9	17	Scenes	Categorize	6390	162756	156466	0			Repeat	Irrelevant	1	156353	155863	495TRSEscan	106	9	18	Scenes	Categorize	2390	165758	163468	0			Repeat	Irrelevant	1	163355	162865	597TRSEscan	106	9	19	Faces	Categorize	2390	168756	166466	3			Repeat	Irrelevant	1	166353	165863	631TRSEscan	106	9	20	Scenes	Categorize	4390	173754	169464	1			Novel	Irrelevant	1	169351	168861	641TRSEscan	106	9	21	Scenes	Categorize	6390	180746	174456	0			Repeat	Irrelevant	1	174343	173853	953TRSEscan	106	10	1		Both					211544	210554						TRSEscan	106	10	2	Faces	Both	4390	218446	214156	0			Novel	Relevant	1	214043	213553	476TRSEscan	106	10	3	Faces	Both	2390	221437	219147	0			Novel	Relevant	1	219035	218545	636TRSEscan	106	10	4	Scenes	Both	2390	224436	222146	2			Novel	Relevant	1	222033	221543	918TRSEscan	106	10	5	Faces	Both	6390	231434	225144	1			Novel	Relevant	1	225031	224541	888TRSEscan	106	10	6	Faces	Both	4390	236436	232146	0			Repeat	Relevant	0	232033	231543	534TRSEscan	106	10	7	Faces	Both	6390	243428	237138	0			Novel	Relevant	1	237025	236535	798TRSEscan	106	10	8	Scenes	Both	2390	246430	244140	3			Novel	Relevant	1	244027	243537	884TRSEscan	106	10	9	Faces	Both	4390	251428	247138	1			Novel	Relevant	1	247025	246535	814TRSEscan	106	10	10	Faces	Both	6390	258420	252130	0			Repeat	Relevant	1	252017	251527	638TRSEscan	106	10	11	Scenes	Both	4390	263422	259132	2			Novel	Relevant	1	259019	258529	811TRSEscan	106	10	12	Scenes	Both	2390	266413	264123	0			Repeat	Relevant	1	264011	263521	883TRSEscan	106	10	13	Faces	Both	4390	271412	267122	2			Repeat	Relevant	1	267009	266519	669TRSEscan	106	10	14	Scenes	Both	2390	274403	272113	1			Novel	Relevant	1	272001	271511	581TRSEscan	106	10	15	Faces	Both	6390	281402	275112	1			Novel	Relevant	1	274999	274509	655TRSEscan	106	10	16	Scenes	Both	4390	286404	282114	1			Novel	Relevant	1	282001	281511	845TRSEscan	106	10	17	Scenes	Both	6390	293395	287105	0			Repeat	Relevant	1	286993	286503	741TRSEscan	106	10	18	Scenes	Both	2390	296397	294107	0			Repeat	Relevant	1	293994	293504	716TRSEscan	106	10	19	Faces	Both	2390	299396	297106	3			Repeat	Relevant	1	296993	296503	941TRSEscan	106	10	20	Scenes	Both	4390	304394	300104	1			Novel	Relevant	1	299991	299501	703TRSEscan	106	10	21	Scenes	Both	6390	311386	305096	0			Repeat	Relevant	1	304983	304493	655TRSEscan	106	11	1		Faces					341380	340390						TRSEscan	106	11	2	Faces	Faces	4390	348281	343991	0			Novel	Relevant	1	343878	343388	511TRSEscan	106	11	3	Faces	Faces	2390	351273	348983	0			Novel	Relevant	1	348870	348380	559TRSEscan	106	11	4	Scenes	Faces	2390	354271	351981	2			Novel	Irrelevant	1	351868	351378	569TRSEscan	106	11	5	Faces	Faces	6390	361270	354980	1			Novel	Relevant	1	354867	354377	738TRSEscan	106	11	6	Faces	Faces	4390	366272	361982	0			Repeat	Relevant	1	361869	361379	784TRSEscan	106	11	7	Faces	Faces	6390	373263	366973	0			Novel	Relevant	1	366861	366371	616TRSEscan	106	11	8	Scenes	Faces	2390	376265	373975	3			Novel	Irrelevant	1	373862	373372	663TRSEscan	106	11	9	Faces	Faces	4390	381264	376974	1			Novel	Relevant	1	376860	376370	641TRSEscan	106	11	10	Faces	Faces	6390	388255	381965	0			Repeat	Relevant	1	381853	381363	616TRSEscan	106	11	11	Scenes	Faces	4390	393257	388967	2			Novel	Irrelevant	1	388854	388364	487TRSEscan	106	11	12	Scenes	Faces	2390	396249	393959	0			Repeat	Irrelevant	1	393846	393356	502TRSEscan	106	11	13	Faces	Faces	4390	401247	396957	2			Repeat	Relevant	1	396844	396354	616TRSEscan	106	11	14	Scenes	Faces	2390	404239	401949	1			Novel	Irrelevant	1	401836	401346	560TRSEscan	106	11	15	Faces	Faces	6390	411237	404947	1			Novel	Relevant	1	404834	404344	634TRSEscan	106	11	16	Scenes	Faces	4390	416239	411949	1			Novel	Irrelevant	1	411836	411346	504TRSEscan	106	11	17	Scenes	Faces	6390	423231	416941	0			Repeat	Irrelevant	1	416828	416338	488TRSEscan	106	11	18	Scenes	Faces	2390	426233	423943	0			Repeat	Irrelevant	1	423830	423340	550TRSEscan	106	11	19	Faces	Faces	2390	429231	426941	3			Repeat	Relevant	1	426828	426338	760TRSEscan	106	11	20	Scenes	Faces	4390	434230	429940	1			Novel	Irrelevant	1	429827	429337	593TRSEscan	106	11	21	Scenes	Faces	6390	441221	434931	0			Repeat	Irrelevant	1	434819	434329	649TRSEscan	106	12	1		Scenes					471316	470326						TRSEscan	106	12	2	Faces	Scenes	4390	478217	473927	0			Novel	Irrelevant	1	473814	473324	413TRSEscan	106	12	3	Faces	Scenes	2390	481209	478919	0			Novel	Irrelevant	1	478806	478316	501TRSEscan	106	12	4	Scenes	Scenes	2390	484207	481917	2			Novel	Relevant	1	481804	481314	463TRSEscan	106	12	5	Faces	Scenes	6390	491206	484916	1			Novel	Irrelevant	1	484803	484313	512TRSEscan	106	12	6	Faces	Scenes	4390	496208	491918	0			Repeat	Irrelevant	1	491805	491315	462TRSEscan	106	12	7	Faces	Scenes	6390	503199	496909	0			Novel	Irrelevant	1	496797	496307	414TRSEscan	106	12	8	Scenes	Scenes	2390	506201	503911	3			Novel	Relevant	0	503798	503308	469TRSEscan	106	12	9	Faces	Scenes	4390	511200	506910	1			Novel	Irrelevant	1	506797	506307	566TRSEscan	106	12	10	Faces	Scenes	6390	518191	511901	0			Repeat	Irrelevant	1	511789	511299	390TRSEscan	106	12	11	Scenes	Scenes	4390	523193	518903	2			Novel	Relevant	0	518790	518300	1373TRSEscan	106	12	12	Scenes	Scenes	2390	526185	523895	0			Repeat	Relevant	1	523782	523292	636TRSEscan	106	12	13	Faces	Scenes	4390	531183	526893	2			Repeat	Irrelevant	1	526780	526290	494TRSEscan	106	12	14	Scenes	Scenes	2390	534175	531885	1			Novel	Relevant	1	531772	531282	662TRSEscan	106	12	15	Faces	Scenes	6390	541173	534883	1			Novel	Irrelevant	1	534770	534280	568TRSEscan	106	12	16	Scenes	Scenes	4390	546175	541885	1			Novel	Relevant	1	541772	541282	590TRSEscan	106	12	17	Scenes	Scenes	6390	553167	546877	0			Repeat	Relevant	1	546764	546274	646TRSEscan	106	12	18	Scenes	Scenes	2390	556169	553879	0			Repeat	Relevant	1	553766	553276	548TRSEscan	106	12	19	Faces	Scenes	2390	559167	556877	3			Repeat	Irrelevant	1	556764	556274	534TRSEscan	106	12	20	Scenes	Scenes	4390	564166	559876	1			Novel	Relevant	1	559763	559273	775TRSEscan	106	12	21	Scenes	Scenes	6390	571157	564867	0			Repeat	Relevant	1	564755	564265	655TRSEscan	106	13	1		Both					64713	63723						TRSEscan	106	13	2	Scenes	Both	2390	69614	67324	0			Novel	Relevant	1	67211	66721	359TRSEscan	106	13	3	Scenes	Both	4390	74613	70323	0			Repeat	Relevant	1	70210	69720	608TRSEscan	106	13	4	Faces	Both	6390	81605	75315	2			Novel	Relevant	1	75202	74712	504TRSEscan	106	13	5	Scenes	Both	4390	86606	82316	1			Repeat	Relevant	0	82203	81713	775TRSEscan	106	13	6	Scenes	Both	2390	89598	87308	0			Novel	Relevant	1	87195	86705	711TRSEscan	106	13	7	Scenes	Both	4390	94597	90307	0			Novel	Relevant	1	90194	89704	792TRSEscan	106	13	8	Faces	Both	2390	97588	95298	3			Repeat	Relevant	1	95186	94696	592TRSEscan	106	13	9	Scenes	Both	6390	104587	98297	1			Repeat	Relevant	1	98184	97694	722TRSEscan	106	13	10	Faces	Both	4390	109589	105299	1			Repeat	Relevant	1	105186	104696	680TRSEscan	106	13	11	Scenes	Both	6390	116580	110290	1			Novel	Relevant	1	110178	109688	688TRSEscan	106	13	12	Scenes	Both	2390	119582	117292	0			Novel	Relevant	1	117179	116689	671TRSEscan	106	13	13	Faces	Both	2390	122581	120291	2			Novel	Relevant	1	120178	119688	768TRSEscan	106	13	14	Faces	Both	6390	129579	123289	0			Novel	Relevant	1	123176	122686	682TRSEscan	106	13	15	Scenes	Both	4390	134581	130291	2			Novel	Relevant	1	130178	129688	623TRSEscan	106	13	16	Faces	Both	6390	141573	135283	1			Repeat	Relevant	1	135170	134680	711TRSEscan	106	13	17	Faces	Both	2390	144574	142284	0			Novel	Relevant	1	142171	141681	1022TRSEscan	106	13	18	Faces	Both	4390	149573	145283	0			Novel	Relevant	1	145170	144680	831TRSEscan	106	13	19	Scenes	Both	2390	152564	150274	3			Repeat	Relevant	1	150162	149672	767TRSEscan	106	13	20	Faces	Both	4390	157563	153273	1			Novel	Relevant	1	153160	152670	753TRSEscan	106	13	21	Faces	Both	6390	164555	158265	0			Repeat	Relevant	1	158152	157662	745TRSEscan	106	14	1		Faces					195302	194312						TRSEscan	106	14	2	Scenes	Faces	2390	200204	197914	0			Novel	Irrelevant	1	197801	197311	943TRSEscan	106	14	3	Scenes	Faces	4390	205202	200912	0			Repeat	Irrelevant	1	200799	200309	433TRSEscan	106	14	4	Faces	Faces	6390	212194	205904	2			Novel	Relevant	1	205791	205301	521TRSEscan	106	14	5	Scenes	Faces	4390	217196	212906	1			Repeat	Irrelevant	1	212793	212303	503TRSEscan	106	14	6	Scenes	Faces	2390	220187	217897	0			Novel	Irrelevant	1	217785	217295	543TRSEscan	106	14	7	Scenes	Faces	4390	225186	220896	0			Novel	Irrelevant	1	220783	220293	633TRSEscan	106	14	8	Faces	Faces	2390	228178	225888	3			Repeat	Relevant	1	225775	225285	433TRSEscan	106	14	9	Scenes	Faces	6390	235176	228886	1			Repeat	Irrelevant	1	228773	228283	531TRSEscan	106	14	10	Faces	Faces	4390	240178	235888	1			Repeat	Relevant	1	235775	235285	521TRSEscan	106	14	11	Scenes	Faces	6390	247170	240880	1			Novel	Irrelevant	1	240767	240277	465TRSEscan	106	14	12	Scenes	Faces	2390	250171	247881	0			Novel	Irrelevant	1	247768	247278	520TRSEscan	106	14	13	Faces	Faces	2390	253170	250880	2			Novel	Relevant	1	250767	250277	689TRSEscan	106	14	14	Faces	Faces	6390	260168	253878	0			Novel	Relevant	1	253765	253275	643TRSEscan	106	14	15	Scenes	Faces	4390	265170	260880	2			Novel	Irrelevant	1	260767	260277	448TRSEscan	106	14	16	Faces	Faces	6390	272162	265872	1			Repeat	Relevant	0	265759	265269	528TRSEscan	106	14	17	Faces	Faces	2390	275164	272874	0			Novel	Relevant	1	272761	272271	646TRSEscan	106	14	18	Faces	Faces	4390	280162	275872	0			Novel	Relevant	1	275759	275269	1000TRSEscan	106	14	19	Scenes	Faces	2390	283154	280864	3			Repeat	Irrelevant	1	280751	280261	536TRSEscan	106	14	20	Faces	Faces	4390	288152	283862	1			Novel	Relevant	1	283749	283259	602TRSEscan	106	14	21	Faces	Faces	6390	295144	288854	0			Repeat	Relevant	0	288741	288251	634TRSEscan	106	15	1		Scenes					325892	324902						TRSEscan	106	15	2	Scenes	Scenes	2390	330793	328503	0			Novel	Relevant	1	328390	327900	408TRSEscan	106	15	3	Scenes	Scenes	4390	335791	331501	0			Repeat	Relevant	1	331388	330898	634TRSEscan	106	15	4	Faces	Scenes	6390	342783	336493	2			Novel	Irrelevant	1	336380	335890	482TRSEscan	106	15	5	Scenes	Scenes	4390	347785	343495	1			Repeat	Relevant	1	343382	342892	672TRSEscan	106	15	6	Scenes	Scenes	2390	350777	348487	0			Novel	Relevant	1	348374	347884	744TRSEscan	106	15	7	Scenes	Scenes	4390	355775	351485	0			Novel	Relevant	1	351372	350882	690TRSEscan	106	15	8	Faces	Scenes	2390	358767	356477	3			Repeat	Irrelevant	1	356364	355874	530TRSEscan	106	15	9	Scenes	Scenes	6390	365765	359475	1			Repeat	Relevant	1	359362	358872	644TRSEscan	106	15	10	Faces	Scenes	4390	370767	366477	1			Repeat	Irrelevant	1	366364	365874	506TRSEscan	106	15	11	Scenes	Scenes	6390	377759	371469	1			Novel	Relevant	1	371356	370866	586TRSEscan	106	15	12	Scenes	Scenes	2390	380761	378471	0			Novel	Relevant	1	378358	377868	696TRSEscan	106	15	13	Faces	Scenes	2390	383759	381469	2			Novel	Irrelevant	1	381356	380866	554TRSEscan	106	15	14	Faces	Scenes	6390	390758	384468	0			Novel	Irrelevant	1	384355	383865	531TRSEscan	106	15	15	Scenes	Scenes	4390	395759	391469	2			Novel	Relevant	1	391356	390866	793TRSEscan	106	15	16	Faces	Scenes	6390	402751	396461	1			Repeat	Irrelevant	1	396348	395858	545TRSEscan	106	15	17	Faces	Scenes	2390	405753	403463	0			Novel	Irrelevant	1	403350	402860	559TRSEscan	106	15	18	Faces	Scenes	4390	410751	406461	0			Novel	Irrelevant	1	406348	405858	553TRSEscan	106	15	19	Scenes	Scenes	2390	413743	411453	3			Repeat	Relevant	1	411340	410850	553TRSEscan	106	15	20	Faces	Scenes	4390	418742	414452	1			Novel	Irrelevant	1	414338	413848	635TRSEscan	106	15	21	Faces	Scenes	6390	425733	419443	0			Repeat	Irrelevant	1	419331	418841	546TRSEscan	106	16	1		Categorize					460417	459427						TRSEscan	106	16	2	Scenes	Categorize	2390	465319	463029	0			Novel	Irrelevant	1	462916	462426	600TRSEscan	106	16	3	Scenes	Categorize	4390	470317	466027	0			Repeat	Irrelevant	1	465914	465424	546TRSEscan	106	16	4	Faces	Categorize	6390	477309	471019	2			Novel	Irrelevant	1	470906	470416	482TRSEscan	106	16	5	Scenes	Categorize	4390	482311	478021	1			Repeat	Irrelevant	1	477908	477418	480TRSEscan	106	16	6	Scenes	Categorize	2390	485303	483013	0			Novel	Irrelevant	1	482900	482410	472TRSEscan	106	16	7	Scenes	Categorize	4390	490301	486011	0			Novel	Irrelevant	1	485898	485408	634TRSEscan	106	16	8	Faces	Categorize	2390	493293	491003	3			Repeat	Irrelevant	1	490890	490400	458TRSEscan	106	16	9	Scenes	Categorize	6390	500291	494001	1			Repeat	Irrelevant	1	493888	493398	692TRSEscan	106	16	10	Faces	Categorize	4390	505293	501003	1			Repeat	Irrelevant	1	500890	500400	514TRSEscan	106	16	11	Scenes	Categorize	6390	512285	505995	1			Novel	Irrelevant	1	505882	505392	474TRSEscan	106	16	12	Scenes	Categorize	2390	515287	512997	0			Novel	Irrelevant	1	512884	512394	472TRSEscan	106	16	13	Faces	Categorize	2390	518285	515995	2			Novel	Irrelevant	1	515882	515392	594TRSEscan	106	16	14	Faces	Categorize	6390	525283	518993	0			Novel	Irrelevant	1	518880	518390	475TRSEscan	106	16	15	Scenes	Categorize	4390	530285	525995	2			Novel	Irrelevant	1	525882	525392	561TRSEscan	106	16	16	Faces	Categorize	6390	537277	530987	1			Repeat	Irrelevant	1	530874	530384	505TRSEscan	106	16	17	Faces	Categorize	2390	540279	537989	0			Novel	Irrelevant	1	537876	537386	463TRSEscan	106	16	18	Faces	Categorize	4390	545277	540987	0			Novel	Irrelevant	1	540874	540384	545TRSEscan	106	16	19	Scenes	Categorize	2390	548269	545979	3			Repeat	Irrelevant	1	545866	545376	609TRSEscan	106	16	20	Faces	Categorize	4390	553267	548977	1			Novel	Irrelevant	1	548864	548374	531TRSEscan	106	16	21	Faces	Categorize	6390	560259	553969	0			Repeat	Irrelevant	1	553856	553366	451