ExperimentName	Subject	Block	Trial	Category	Condition	Delay	DelayFixation.OffsetTime	DelayFixation.OnsetTime	Distractors	Go.OffsetTime	Go.OnsetTime	Novelty	Relevance	Stim.ACC	Stim.OffsetTime	Stim.OnsetTime	Stim.RTTRSEscan	107	1	1		Faces					114600	113610						TRSEscan	107	1	2	Scenes	Faces	4390	121502	117212	0			Novel	Irrelevant	1	117099	116609	2088TRSEscan	107	1	3	Faces	Faces	2390	124493	122203	1			Novel	Relevant	1	122091	121601	1368TRSEscan	107	1	4	Faces	Faces	2390	127492	125202	0			Novel	Relevant	0	125089	124599	1210TRSEscan	107	1	5	Scenes	Faces	4390	132490	128200	2			Novel	Irrelevant	1	128087	127597	1228TRSEscan	107	1	6	Faces	Faces	6390	139482	133192	1			Repeat	Relevant	1	133079	132589	484TRSEscan	107	1	7	Scenes	Faces	6390	146484	140194	1			Repeat	Irrelevant	1	140081	139591	514TRSEscan	107	1	8	Scenes	Faces	4390	151486	147196	0			Novel	Irrelevant	1	147083	146593	1168TRSEscan	107	1	9	Scenes	Faces	2390	154477	152187	0			Repeat	Irrelevant	1	152075	151585	472TRSEscan	107	1	10	Faces	Faces	4390	159476	155186	3			Novel	Relevant	0	155073	154583	642TRSEscan	107	1	11	Scenes	Faces	6390	166468	160178	1			Repeat	Irrelevant	1	160065	159575	514TRSEscan	107	1	12	Scenes	Faces	2390	169469	167179	0			Novel	Irrelevant	1	167066	166576	528TRSEscan	107	1	13	Faces	Faces	4390	174468	170178	2			Repeat	Relevant	1	170065	169575	625TRSEscan	107	1	14	Scenes	Faces	2390	177459	175169	1			Repeat	Irrelevant	1	175057	174567	409TRSEscan	107	1	15	Scenes	Faces	6390	184458	178168	0			Novel	Irrelevant	1	178055	177565	515TRSEscan	107	1	16	Faces	Faces	6390	191460	185170	2			Repeat	Relevant	1	185057	184567	633TRSEscan	107	1	17	Faces	Faces	2390	194462	192172	0			Novel	Relevant	0	192059	191569	639TRSEscan	107	1	18	Faces	Faces	4390	199460	195170	0			Repeat	Relevant	1	195057	194567	953TRSEscan	107	1	19	Scenes	Faces	2390	202452	200162	3			Novel	Irrelevant	1	200049	199559	601TRSEscan	107	1	20	Faces	Faces	6390	209450	203160	1			Novel	Relevant	0	203047	202557	595TRSEscan	107	1	21	Faces	Faces	4390	214452	210162	0			Novel	Relevant	0	210049	209559	729TRSEscan	107	2	1		Scenes					245408	244418						TRSEscan	107	2	2	Scenes	Scenes	4390	252309	248019	0			Novel	Relevant	0	247906	247416	807TRSEscan	107	2	3	Faces	Scenes	2390	255300	253010	1			Novel	Irrelevant	1	252898	252408	703TRSEscan	107	2	4	Faces	Scenes	2390	258299	256009	0			Novel	Irrelevant	1	255896	255406	1569TRSEscan	107	2	5	Scenes	Scenes	4390	263297	259007	2			Novel	Relevant	0	258894	258404	699TRSEscan	107	2	6	Faces	Scenes	6390	270289	263999	1			Repeat	Irrelevant	1	263886	263396	475TRSEscan	107	2	7	Scenes	Scenes	6390	277291	271001	1			Repeat	Relevant	1	270888	270398	729TRSEscan	107	2	8	Scenes	Scenes	4390	282293	278003	0			Novel	Relevant	0	277890	277400	671TRSEscan	107	2	9	Scenes	Scenes	2390	285284	282994	0			Repeat	Relevant	1	282882	282392	991TRSEscan	107	2	10	Faces	Scenes	4390	290283	285993	3			Novel	Irrelevant	1	285880	285390	961TRSEscan	107	2	11	Scenes	Scenes	6390	297275	290985	1			Repeat	Relevant	1	290872	290382	721TRSEscan	107	2	12	Scenes	Scenes	2390	300276	297986	0			Novel	Relevant	0	297873	297383	607TRSEscan	107	2	13	Faces	Scenes	4390	305275	300985	2			Repeat	Irrelevant	1	300872	300382	744TRSEscan	107	2	14	Scenes	Scenes	2390	308267	305977	1			Repeat	Relevant	1	305864	305374	648TRSEscan	107	2	15	Scenes	Scenes	6390	315265	308975	0			Novel	Relevant	0	308862	308372	1050TRSEscan	107	2	16	Faces	Scenes	6390	322267	315977	2			Repeat	Irrelevant	1	315864	315374	688TRSEscan	107	2	17	Faces	Scenes	2390	325269	322979	0			Novel	Irrelevant	1	322866	322376	1062TRSEscan	107	2	18	Faces	Scenes	4390	330267	325977	0			Repeat	Irrelevant	1	325864	325374	600TRSEscan	107	2	19	Scenes	Scenes	2390	333259	330969	3			Novel	Relevant	0	330856	330366	648TRSEscan	107	2	20	Faces	Scenes	6390	340257	333967	1			Novel	Irrelevant	1	333854	333364	650TRSEscan	107	2	21	Faces	Scenes	4390	345259	340969	0			Novel	Irrelevant	1	340856	340366	552TRSEscan	107	3	1		Categorize					379330	378340						TRSEscan	107	3	2	Scenes	Categorize	4390	386231	381941	0			Novel	Irrelevant	1	381828	381338	779TRSEscan	107	3	3	Faces	Categorize	2390	389223	386933	1			Novel	Irrelevant	1	386820	386330	611TRSEscan	107	3	4	Faces	Categorize	2390	392222	389932	0			Novel	Irrelevant	1	389819	389329	884TRSEscan	107	3	5	Scenes	Categorize	4390	397220	392930	2			Novel	Irrelevant	1	392817	392327	670TRSEscan	107	3	6	Faces	Categorize	6390	404212	397922	1			Repeat	Irrelevant	1	397809	397319	534TRSEscan	107	3	7	Scenes	Categorize	6390	411214	404924	1			Repeat	Irrelevant	1	404811	404321	1404TRSEscan	107	3	8	Scenes	Categorize	4390	416215	411925	0			Novel	Irrelevant	1	411812	411322	635TRSEscan	107	3	9	Scenes	Categorize	2390	419207	416917	0			Repeat	Irrelevant	1	416804	416314	611TRSEscan	107	3	10	Faces	Categorize	4390	424206	419916	3			Novel	Irrelevant	1	419803	419313	636TRSEscan	107	3	11	Scenes	Categorize	6390	431197	424907	1			Repeat	Irrelevant	1	424795	424305	612TRSEscan	107	3	12	Scenes	Categorize	2390	434199	431909	0			Novel	Irrelevant	1	431796	431306	1130TRSEscan	107	3	13	Faces	Categorize	4390	439198	434908	2			Repeat	Irrelevant	1	434794	434304	412TRSEscan	107	3	14	Scenes	Categorize	2390	442189	439899	1			Repeat	Irrelevant	1	439787	439297	787TRSEscan	107	3	15	Scenes	Categorize	6390	449188	442898	0			Novel	Irrelevant	1	442785	442295	501TRSEscan	107	3	16	Faces	Categorize	6390	456190	449900	2			Repeat	Irrelevant	1	449786	449296	484TRSEscan	107	3	17	Faces	Categorize	2390	459191	456901	0			Novel	Irrelevant	1	456788	456298	578TRSEscan	107	3	18	Faces	Categorize	4390	464190	459900	0			Repeat	Irrelevant	1	459787	459297	515TRSEscan	107	3	19	Scenes	Categorize	2390	467182	464892	3			Novel	Irrelevant	1	464779	464289	739TRSEscan	107	3	20	Faces	Categorize	6390	474180	467890	1			Novel	Irrelevant	1	467777	467287	549TRSEscan	107	3	21	Faces	Categorize	4390	479182	474892	0			Novel	Irrelevant	1	474779	474289	643TRSEscan	107	4	1		Both					518781	517791						TRSEscan	107	4	2	Scenes	Both	4390	525682	521392	0			Novel	Relevant	0	521279	520789	0TRSEscan	107	4	3	Faces	Both	2390	528674	526384	1			Novel	Relevant	0	526271	525781	0TRSEscan	107	4	4	Faces	Both	2390	531672	529382	0			Novel	Relevant	0	529269	528779	0TRSEscan	107	4	5	Scenes	Both	4390	536670	532380	2			Novel	Relevant	0	532267	531777	0TRSEscan	107	4	6	Faces	Both	6390	543662	537372	1			Repeat	Relevant	0	537259	536769	0TRSEscan	107	4	7	Scenes	Both	6390	550664	544374	1			Repeat	Relevant	0	544261	543771	0TRSEscan	107	4	8	Scenes	Both	4390	555666	551376	0			Novel	Relevant	0	551263	550773	0TRSEscan	107	4	9	Scenes	Both	2390	558658	556368	0			Repeat	Relevant	0	556255	555765	0TRSEscan	107	4	10	Faces	Both	4390	563656	559366	3			Novel	Relevant	0	559253	558763	0TRSEscan	107	4	11	Scenes	Both	6390	570648	564358	1			Repeat	Relevant	0	564245	563755	0TRSEscan	107	4	12	Scenes	Both	2390	573650	571360	0			Novel	Relevant	0	571247	570757	0TRSEscan	107	4	13	Faces	Both	4390	578648	574358	2			Repeat	Relevant	0	574245	573755	0TRSEscan	107	4	14	Scenes	Both	2390	581640	579350	1			Repeat	Relevant	0	579237	578747	0TRSEscan	107	4	15	Scenes	Both	6390	588638	582348	0			Novel	Relevant	0	582235	581745	0TRSEscan	107	4	16	Faces	Both	6390	595640	589350	2			Repeat	Relevant	0	589237	588747	0TRSEscan	107	4	17	Faces	Both	2390	598642	596352	0			Novel	Relevant	0	596239	595749	0TRSEscan	107	4	18	Faces	Both	4390	603640	599350	0			Repeat	Relevant	0	599237	598747	0TRSEscan	107	4	19	Scenes	Both	2390	606632	604342	3			Novel	Relevant	0	604229	603739	0TRSEscan	107	4	20	Faces	Both	6390	613630	607340	1			Novel	Relevant	0	607227	606737	0TRSEscan	107	4	21	Faces	Both	4390	618632	614342	0			Novel	Relevant	0	614229	613739	0TRSEscan	107	5	1		Scenes					109606	108616						TRSEscan	107	5	2	Faces	Scenes	2390	114507	112217	0			Novel	Irrelevant	1	112104	111614	1490TRSEscan	107	5	3	Faces	Scenes	4390	119506	115216	0			Novel	Irrelevant	1	115103	114613	1035TRSEscan	107	5	4	Scenes	Scenes	6390	126497	120207	2			Novel	Relevant	1	120095	119605	835TRSEscan	107	5	5	Faces	Scenes	4390	131499	127209	1			Repeat	Irrelevant	1	127096	126606	466TRSEscan	107	5	6	Faces	Scenes	2390	134491	132201	0			Repeat	Irrelevant	1	132088	131598	538TRSEscan	107	5	7	Faces	Scenes	6390	141489	135199	0			Novel	Irrelevant	1	135086	134596	532TRSEscan	107	5	8	Scenes	Scenes	2390	144491	142201	3			Novel	Relevant	1	142088	141598	698TRSEscan	107	5	9	Scenes	Scenes	4390	149490	145200	0			Repeat	Relevant	1	145087	144597	787TRSEscan	107	5	10	Faces	Scenes	2390	152481	150191	2			Repeat	Irrelevant	1	150079	149589	507TRSEscan	107	5	11	Scenes	Scenes	4390	157480	153190	1			Repeat	Relevant	1	153077	152587	997TRSEscan	107	5	12	Scenes	Scenes	6390	164472	158182	0			Novel	Relevant	1	158069	157579	621TRSEscan	107	5	13	Faces	Scenes	4390	169473	165183	2			Novel	Irrelevant	1	165070	164580	556TRSEscan	107	5	14	Scenes	Scenes	2390	172465	170175	1			Repeat	Relevant	1	170062	169572	747TRSEscan	107	5	15	Scenes	Scenes	6390	179464	173174	0			Novel	Relevant	1	173061	172571	1292TRSEscan	107	5	16	Scenes	Scenes	4390	184465	180175	0			Novel	Relevant	1	180062	179572	843TRSEscan	107	5	17	Faces	Scenes	6390	191457	185167	3			Novel	Irrelevant	1	185054	184564	651TRSEscan	107	5	18	Scenes	Scenes	2390	194459	192169	1			Repeat	Relevant	1	192056	191566	649TRSEscan	107	5	19	Faces	Scenes	2390	197457	195167	1			Repeat	Irrelevant	1	195054	194564	651TRSEscan	107	5	20	Faces	Scenes	6390	204456	198166	0			Novel	Irrelevant	1	198053	197563	700TRSEscan	107	5	21	Scenes	Scenes	4390	209458	205168	2			Novel	Relevant	1	205055	204565	962TRSEscan	107	6	1		Categorize					248504	247514						TRSEscan	107	6	2	Faces	Categorize	2390	253405	251115	0			Novel	Irrelevant	1	251002	250512	494TRSEscan	107	6	3	Faces	Categorize	4390	258403	254113	0			Novel	Irrelevant	1	254000	253510	448TRSEscan	107	6	4	Scenes	Categorize	6390	265395	259105	2			Novel	Irrelevant	1	258992	258502	512TRSEscan	107	6	5	Faces	Categorize	4390	270397	266107	1			Repeat	Irrelevant	1	265994	265504	782TRSEscan	107	6	6	Faces	Categorize	2390	273389	271099	0			Repeat	Irrelevant	1	270986	270496	566TRSEscan	107	6	7	Faces	Categorize	6390	280387	274097	0			Novel	Irrelevant	1	273984	273494	680TRSEscan	107	6	8	Scenes	Categorize	2390	283389	281099	3			Novel	Irrelevant	1	280986	280496	982TRSEscan	107	6	9	Scenes	Categorize	4390	288387	284097	0			Repeat	Irrelevant	1	283984	283494	832TRSEscan	107	6	10	Faces	Categorize	2390	291379	289089	2			Repeat	Irrelevant	1	288976	288486	568TRSEscan	107	6	11	Scenes	Categorize	4390	296378	292088	1			Repeat	Irrelevant	1	291975	291485	672TRSEscan	107	6	12	Scenes	Categorize	6390	303369	297079	0			Novel	Irrelevant	1	296967	296477	769TRSEscan	107	6	13	Faces	Categorize	4390	308371	304081	2			Novel	Irrelevant	1	303968	303478	719TRSEscan	107	6	14	Scenes	Categorize	2390	311363	309073	1			Repeat	Irrelevant	1	308960	308470	487TRSEscan	107	6	15	Scenes	Categorize	6390	318361	312071	0			Novel	Irrelevant	1	311958	311468	945TRSEscan	107	6	16	Scenes	Categorize	4390	323363	319073	0			Novel	Irrelevant	1	318960	318470	631TRSEscan	107	6	17	Faces	Categorize	6390	330355	324065	3			Novel	Irrelevant	1	323952	323462	647TRSEscan	107	6	18	Scenes	Categorize	2390	333357	331067	1			Repeat	Irrelevant	1	330954	330464	981TRSEscan	107	6	19	Faces	Categorize	2390	336355	334065	1			Repeat	Irrelevant	1	333952	333462	615TRSEscan	107	6	20	Faces	Categorize	6390	343353	337063	0			Novel	Irrelevant	1	336950	336460	569TRSEscan	107	6	21	Scenes	Categorize	4390	348355	344065	2			Novel	Irrelevant	1	343952	343462	839TRSEscan	107	7	1		Both					387334	386344						TRSEscan	107	7	2	Faces	Both	2390	392236	389946	0			Novel	Relevant	1	389833	389343	813TRSEscan	107	7	3	Faces	Both	4390	397234	392944	0			Novel	Relevant	1	392831	392341	679TRSEscan	107	7	4	Scenes	Both	6390	404226	397936	2			Novel	Relevant	1	397823	397333	1207TRSEscan	107	7	5	Faces	Both	4390	409228	404938	1			Repeat	Relevant	1	404825	404335	1645TRSEscan	107	7	6	Faces	Both	2390	412219	409929	0			Repeat	Relevant	1	409817	409327	925TRSEscan	107	7	7	Faces	Both	6390	419218	412928	0			Novel	Relevant	1	412815	412325	1039TRSEscan	107	7	8	Scenes	Both	2390	422220	419930	3			Novel	Relevant	1	419817	419327	1533TRSEscan	107	7	9	Scenes	Both	4390	427218	422928	0			Repeat	Relevant	1	422815	422325	1383TRSEscan	107	7	10	Faces	Both	2390	430210	427920	2			Repeat	Relevant	1	427807	427317	655TRSEscan	107	7	11	Scenes	Both	4390	435208	430918	1			Repeat	Relevant	1	430805	430315	1112TRSEscan	107	7	12	Scenes	Both	6390	442200	435910	0			Novel	Relevant	1	435797	435307	1344TRSEscan	107	7	13	Faces	Both	4390	447202	442912	2			Novel	Relevant	1	442799	442309	2150TRSEscan	107	7	14	Scenes	Both	2390	450194	447904	1			Repeat	Relevant	1	447791	447301	1510TRSEscan	107	7	15	Scenes	Both	6390	457192	450902	0			Novel	Relevant	1	450789	450299	1056TRSEscan	107	7	16	Scenes	Both	4390	462194	457904	0			Novel	Relevant	1	457791	457301	1454TRSEscan	107	7	17	Faces	Both	6390	469186	462896	3			Novel	Relevant	1	462783	462293	862TRSEscan	107	7	18	Scenes	Both	2390	472187	469897	1			Repeat	Relevant	1	469784	469294	1493TRSEscan	107	7	19	Faces	Both	2390	475186	472896	1			Repeat	Relevant	1	472783	472293	1190TRSEscan	107	7	20	Faces	Both	6390	482184	475894	0			Novel	Relevant	1	475781	475291	1632TRSEscan	107	7	21	Scenes	Both	4390	487186	482896	2			Novel	Relevant	1	482783	482293	1414TRSEscan	107	8	1		Faces					517974	516984						TRSEscan	107	8	2	Faces	Faces	2390	522875	520585	0			Novel	Relevant	1	520472	519982	860TRSEscan	107	8	3	Faces	Faces	4390	527874	523584	0			Novel	Relevant	1	523471	522981	709TRSEscan	107	8	4	Scenes	Faces	6390	534865	528575	2			Novel	Irrelevant	1	528463	527973	1037TRSEscan	107	8	5	Faces	Faces	4390	539867	535577	1			Repeat	Relevant	1	535464	534974	700TRSEscan	107	8	6	Faces	Faces	2390	542859	540569	0			Repeat	Relevant	1	540456	539966	644TRSEscan	107	8	7	Faces	Faces	6390	549857	543567	0			Novel	Relevant	1	543454	542964	646TRSEscan	107	8	8	Scenes	Faces	2390	552859	550569	3			Novel	Irrelevant	1	550456	549966	380TRSEscan	107	8	9	Scenes	Faces	4390	557858	553568	0			Repeat	Irrelevant	1	553455	552965	540TRSEscan	107	8	10	Faces	Faces	2390	560849	558559	2			Repeat	Relevant	1	558447	557957	1244TRSEscan	107	8	11	Scenes	Faces	4390	565848	561558	1			Repeat	Irrelevant	1	561445	560955	687TRSEscan	107	8	12	Scenes	Faces	6390	572840	566550	0			Novel	Irrelevant	1	566437	565947	1174TRSEscan	107	8	13	Faces	Faces	4390	577841	573551	2			Novel	Relevant	1	573438	572948	677TRSEscan	107	8	14	Scenes	Faces	2390	580833	578543	1			Repeat	Irrelevant	1	578430	577940	861TRSEscan	107	8	15	Scenes	Faces	6390	587832	581542	0			Novel	Irrelevant	1	581428	580938	599TRSEscan	107	8	16	Scenes	Faces	4390	592833	588543	0			Novel	Irrelevant	1	588430	587940	797TRSEscan	107	8	17	Faces	Faces	6390	599825	593535	3			Novel	Relevant	1	593422	592932	909TRSEscan	107	8	18	Scenes	Faces	2390	602827	600537	1			Repeat	Irrelevant	1	600424	599934	595TRSEscan	107	8	19	Faces	Faces	2390	605825	603535	1			Repeat	Relevant	1	603422	602932	821TRSEscan	107	8	20	Faces	Faces	6390	612824	606534	0			Novel	Relevant	1	606421	605931	702TRSEscan	107	8	21	Scenes	Faces	4390	617826	613536	2			Novel	Irrelevant	1	613423	612933	604TRSEscan	107	9	1		Categorize					85337	84347						TRSEscan	107	9	2	Faces	Categorize	4390	92238	87948	0			Novel	Irrelevant	1	87835	87345	732TRSEscan	107	9	3	Faces	Categorize	2390	95230	92940	0			Novel	Irrelevant	1	92827	92337	700TRSEscan	107	9	4	Scenes	Categorize	2390	98228	95938	2			Novel	Irrelevant	1	95825	95335	550TRSEscan	107	9	5	Faces	Categorize	6390	105227	98937	1			Novel	Irrelevant	1	98823	98333	552TRSEscan	107	9	6	Faces	Categorize	4390	110228	105938	0			Repeat	Irrelevant	1	105825	105335	422TRSEscan	107	9	7	Faces	Categorize	6390	117220	110930	0			Novel	Irrelevant	1	110817	110327	494TRSEscan	107	9	8	Scenes	Categorize	2390	120222	117932	3			Novel	Irrelevant	0	117819	117329	580TRSEscan	107	9	9	Faces	Categorize	4390	125220	120930	1			Novel	Irrelevant	1	120817	120327	502TRSEscan	107	9	10	Faces	Categorize	6390	132212	125922	0			Repeat	Irrelevant	1	125809	125319	518TRSEscan	107	9	11	Scenes	Categorize	4390	137214	132924	2			Novel	Irrelevant	1	132811	132321	636TRSEscan	107	9	12	Scenes	Categorize	2390	140206	137916	0			Repeat	Irrelevant	1	137803	137313	796TRSEscan	107	9	13	Faces	Categorize	4390	145204	140914	2			Repeat	Irrelevant	1	140801	140311	694TRSEscan	107	9	14	Scenes	Categorize	2390	148196	145906	1			Novel	Irrelevant	1	145793	145303	485TRSEscan	107	9	15	Faces	Categorize	6390	155194	148904	1			Novel	Irrelevant	1	148791	148301	631TRSEscan	107	9	16	Scenes	Categorize	4390	160196	155906	1			Novel	Irrelevant	1	155793	155303	869TRSEscan	107	9	17	Scenes	Categorize	6390	167188	160898	0			Repeat	Irrelevant	1	160785	160295	669TRSEscan	107	9	18	Scenes	Categorize	2390	170190	167900	0			Repeat	Irrelevant	1	167787	167297	667TRSEscan	107	9	19	Faces	Categorize	2390	173188	170898	3			Repeat	Irrelevant	1	170785	170295	629TRSEscan	107	9	20	Scenes	Categorize	4390	178186	173896	1			Novel	Irrelevant	1	173783	173293	582TRSEscan	107	9	21	Scenes	Categorize	6390	185178	178888	0			Repeat	Irrelevant	1	178775	178285	1071TRSEscan	107	10	1		Both					216429	215439						TRSEscan	107	10	2	Faces	Both	4390	223330	219040	0			Novel	Relevant	1	218927	218437	1526TRSEscan	107	10	3	Faces	Both	2390	226322	224032	0			Novel	Relevant	1	223919	223429	790TRSEscan	107	10	4	Scenes	Both	2390	229320	227030	2			Novel	Relevant	1	226917	226427	1200TRSEscan	107	10	5	Faces	Both	6390	236318	230028	1			Novel	Relevant	1	229915	229425	1178TRSEscan	107	10	6	Faces	Both	4390	241320	237030	0			Repeat	Relevant	1	236917	236427	1312TRSEscan	107	10	7	Faces	Both	6390	248312	242022	0			Novel	Relevant	1	241909	241419	1680TRSEscan	107	10	8	Scenes	Both	2390	251314	249024	3			Novel	Relevant	1	248911	248421	1246TRSEscan	107	10	9	Faces	Both	4390	256312	252022	1			Novel	Relevant	1	251909	251419	1472TRSEscan	107	10	10	Faces	Both	6390	263304	257014	0			Repeat	Relevant	1	256901	256411	1456TRSEscan	107	10	11	Scenes	Both	4390	268306	264016	2			Novel	Relevant	1	263903	263413	1318TRSEscan	107	10	12	Scenes	Both	2390	271297	269007	0			Repeat	Relevant	1	268895	268405	1837TRSEscan	107	10	13	Faces	Both	4390	276296	272006	2			Repeat	Relevant	1	271893	271403	2359TRSEscan	107	10	14	Scenes	Both	2390	279288	276998	1			Novel	Relevant	1	276885	276395	1311TRSEscan	107	10	15	Faces	Both	6390	286286	279996	1			Novel	Relevant	1	279883	279393	1097TRSEscan	107	10	16	Scenes	Both	4390	291288	286998	1			Novel	Relevant	1	286885	286395	1327TRSEscan	107	10	17	Scenes	Both	6390	298280	291990	0			Repeat	Relevant	1	291877	291387	1471TRSEscan	107	10	18	Scenes	Both	2390	301281	298991	0			Repeat	Relevant	1	298878	298388	862TRSEscan	107	10	19	Faces	Both	2390	304280	301990	3			Repeat	Relevant	1	301877	301387	1343TRSEscan	107	10	20	Scenes	Both	4390	309278	304988	1			Novel	Relevant	1	304875	304385	777TRSEscan	107	10	21	Scenes	Both	6390	316270	309980	0			Repeat	Relevant	1	309867	309377	1585TRSEscan	107	11	1		Faces					347436	346446						TRSEscan	107	11	2	Faces	Faces	4390	354338	350048	0			Novel	Relevant	1	349935	349445	628TRSEscan	107	11	3	Faces	Faces	2390	357330	355040	0			Novel	Relevant	1	354927	354437	716TRSEscan	107	11	4	Scenes	Faces	2390	360328	358038	2			Novel	Irrelevant	1	357925	357435	646TRSEscan	107	11	5	Faces	Faces	6390	367326	361036	1			Novel	Relevant	1	360923	360433	624TRSEscan	107	11	6	Faces	Faces	4390	372328	368038	0			Repeat	Relevant	1	367925	367435	958TRSEscan	107	11	7	Faces	Faces	6390	379320	373030	0			Novel	Relevant	1	372917	372427	910TRSEscan	107	11	8	Scenes	Faces	2390	382322	380032	3			Novel	Irrelevant	1	379919	379429	972TRSEscan	107	11	9	Faces	Faces	4390	387320	383030	1			Novel	Relevant	1	382917	382427	766TRSEscan	107	11	10	Faces	Faces	6390	394312	388022	0			Repeat	Relevant	1	387909	387419	1350TRSEscan	107	11	11	Scenes	Faces	4390	399314	395024	2			Novel	Irrelevant	1	394911	394421	1140TRSEscan	107	11	12	Scenes	Faces	2390	402306	400016	0			Repeat	Irrelevant	1	399903	399413	724TRSEscan	107	11	13	Faces	Faces	4390	407304	403014	2			Repeat	Relevant	1	402901	402411	1109TRSEscan	107	11	14	Scenes	Faces	2390	410296	408006	1			Novel	Irrelevant	1	407893	407403	1189TRSEscan	107	11	15	Faces	Faces	6390	417294	411004	1			Novel	Relevant	1	410891	410401	791TRSEscan	107	11	16	Scenes	Faces	4390	422296	418006	1			Novel	Irrelevant	1	417893	417403	757TRSEscan	107	11	17	Scenes	Faces	6390	429288	422998	0			Repeat	Irrelevant	1	422885	422395	557TRSEscan	107	11	18	Scenes	Faces	2390	432289	429999	0			Repeat	Irrelevant	1	429886	429396	684TRSEscan	107	11	19	Faces	Faces	2390	435288	432998	3			Repeat	Relevant	0	432885	432395	1685TRSEscan	107	11	20	Scenes	Faces	4390	440286	435996	1			Novel	Irrelevant	1	435883	435393	807TRSEscan	107	11	21	Scenes	Faces	6390	447278	440988	0			Repeat	Irrelevant	1	440875	440385	1031TRSEscan	107	12	1		Scenes					477372	476382						TRSEscan	107	12	2	Faces	Scenes	4390	484274	479984	0			Novel	Irrelevant	1	479871	479381	1650TRSEscan	107	12	3	Faces	Scenes	2390	487266	484976	0			Novel	Irrelevant	1	484863	484373	618TRSEscan	107	12	4	Scenes	Scenes	2390	490264	487974	2			Novel	Relevant	1	487861	487371	684TRSEscan	107	12	5	Faces	Scenes	6390	497262	490972	1			Novel	Irrelevant	1	490859	490369	486TRSEscan	107	12	6	Faces	Scenes	4390	502264	497974	0			Repeat	Irrelevant	1	497861	497371	660TRSEscan	107	12	7	Faces	Scenes	6390	509256	502966	0			Novel	Irrelevant	1	502853	502363	460TRSEscan	107	12	8	Scenes	Scenes	2390	512258	509968	3			Novel	Relevant	1	509855	509365	826TRSEscan	107	12	9	Faces	Scenes	4390	517256	512966	1			Novel	Irrelevant	1	512853	512363	564TRSEscan	107	12	10	Faces	Scenes	6390	524248	517958	0			Repeat	Irrelevant	1	517845	517355	524TRSEscan	107	12	11	Scenes	Scenes	4390	529250	524960	2			Novel	Relevant	1	524847	524357	530TRSEscan	107	12	12	Scenes	Scenes	2390	532242	529952	0			Repeat	Relevant	1	529839	529349	618TRSEscan	107	12	13	Faces	Scenes	4390	537240	532950	2			Repeat	Irrelevant	1	532837	532347	644TRSEscan	107	12	14	Scenes	Scenes	2390	540232	537942	1			Novel	Relevant	1	537829	537339	1099TRSEscan	107	12	15	Faces	Scenes	6390	547230	540940	1			Novel	Irrelevant	1	540827	540337	678TRSEscan	107	12	16	Scenes	Scenes	4390	552232	547942	1			Novel	Relevant	1	547829	547339	1395TRSEscan	107	12	17	Scenes	Scenes	6390	559224	552934	0			Repeat	Relevant	1	552821	552331	867TRSEscan	107	12	18	Scenes	Scenes	2390	562226	559936	0			Repeat	Relevant	1	559823	559333	1073TRSEscan	107	12	19	Faces	Scenes	2390	565224	562934	3			Repeat	Irrelevant	1	562821	562331	747TRSEscan	107	12	20	Scenes	Scenes	4390	570222	565932	1			Novel	Relevant	1	565819	565329	941TRSEscan	107	12	21	Scenes	Scenes	6390	577214	570924	0			Repeat	Relevant	1	570811	570321	765TRSEscan	107	13	1		Both					68008	67018						TRSEscan	107	13	2	Scenes	Both	2390	72909	70619	0			Novel	Relevant	1	70506	70016	1093TRSEscan	107	13	3	Scenes	Both	4390	77907	73617	0			Repeat	Relevant	1	73504	73014	783TRSEscan	107	13	4	Faces	Both	6390	84899	78609	2			Novel	Relevant	1	78496	78006	607TRSEscan	107	13	5	Scenes	Both	4390	89901	85611	1			Repeat	Relevant	1	85498	85008	701TRSEscan	107	13	6	Scenes	Both	2390	92893	90603	0			Novel	Relevant	1	90490	90000	1149TRSEscan	107	13	7	Scenes	Both	4390	97891	93601	0			Novel	Relevant	1	93488	92998	807TRSEscan	107	13	8	Faces	Both	2390	100883	98593	3			Repeat	Relevant	1	98480	97990	623TRSEscan	107	13	9	Scenes	Both	6390	107881	101591	1			Repeat	Relevant	1	101478	100988	1161TRSEscan	107	13	10	Faces	Both	4390	112883	108593	1			Repeat	Relevant	1	108480	107990	1239TRSEscan	107	13	11	Scenes	Both	6390	119875	113585	1			Novel	Relevant	1	113472	112982	1191TRSEscan	107	13	12	Scenes	Both	2390	122877	120587	0			Novel	Relevant	1	120474	119984	1437TRSEscan	107	13	13	Faces	Both	2390	125875	123585	2			Novel	Relevant	1	123472	122982	1231TRSEscan	107	13	14	Faces	Both	6390	132873	126583	0			Novel	Relevant	1	126470	125980	689TRSEscan	107	13	15	Scenes	Both	4390	137875	133585	2			Novel	Relevant	1	133472	132982	1823TRSEscan	107	13	16	Faces	Both	6390	144867	138577	1			Repeat	Relevant	1	138464	137974	1230TRSEscan	107	13	17	Faces	Both	2390	147869	145579	0			Novel	Relevant	1	145466	144976	924TRSEscan	107	13	18	Faces	Both	4390	152867	148577	0			Novel	Relevant	1	148464	147974	782TRSEscan	107	13	19	Scenes	Both	2390	155859	153569	3			Repeat	Relevant	1	153456	152966	470TRSEscan	107	13	20	Faces	Both	4390	160857	156567	1			Novel	Relevant	1	156454	155964	1248TRSEscan	107	13	21	Faces	Both	6390	167849	161559	0			Repeat	Relevant	1	161446	160956	1040TRSEscan	107	14	1		Faces					198647	197657						TRSEscan	107	14	2	Scenes	Faces	2390	203549	201259	0			Novel	Irrelevant	1	201146	200656	980TRSEscan	107	14	3	Scenes	Faces	4390	208547	204257	0			Repeat	Irrelevant	1	204144	203654	413TRSEscan	107	14	4	Faces	Faces	6390	215539	209249	2			Novel	Relevant	1	209136	208646	549TRSEscan	107	14	5	Scenes	Faces	4390	220540	216250	1			Repeat	Irrelevant	1	216137	215647	444TRSEscan	107	14	6	Scenes	Faces	2390	223532	221242	0			Novel	Irrelevant	1	221129	220639	580TRSEscan	107	14	7	Scenes	Faces	4390	228531	224241	0			Novel	Irrelevant	1	224128	223638	525TRSEscan	107	14	8	Faces	Faces	2390	231522	229232	3			Repeat	Relevant	1	229120	228630	717TRSEscan	107	14	9	Scenes	Faces	6390	238521	232231	1			Repeat	Irrelevant	1	232118	231628	631TRSEscan	107	14	10	Faces	Faces	4390	243523	239233	1			Repeat	Relevant	1	239120	238630	781TRSEscan	107	14	11	Scenes	Faces	6390	250514	244224	1			Novel	Irrelevant	1	244112	243622	709TRSEscan	107	14	12	Scenes	Faces	2390	253516	251226	0			Novel	Irrelevant	1	251113	250623	636TRSEscan	107	14	13	Faces	Faces	2390	256515	254225	2			Novel	Relevant	1	254112	253622	837TRSEscan	107	14	14	Faces	Faces	6390	263513	257223	0			Novel	Relevant	1	257110	256620	783TRSEscan	107	14	15	Scenes	Faces	4390	268515	264225	2			Novel	Irrelevant	1	264112	263622	637TRSEscan	107	14	16	Faces	Faces	6390	275507	269217	1			Repeat	Relevant	1	269104	268614	685TRSEscan	107	14	17	Faces	Faces	2390	278508	276218	0			Novel	Relevant	1	276105	275615	915TRSEscan	107	14	18	Faces	Faces	4390	283507	279217	0			Novel	Relevant	1	279104	278614	2004TRSEscan	107	14	19	Scenes	Faces	2390	286499	284209	3			Repeat	Irrelevant	1	284096	283606	756TRSEscan	107	14	20	Faces	Faces	4390	291497	287207	1			Novel	Relevant	1	287094	286604	702TRSEscan	107	14	21	Faces	Faces	6390	298489	292199	0			Repeat	Relevant	1	292086	291596	1238TRSEscan	107	15	1		Scenes					328382	327392						TRSEscan	107	15	2	Scenes	Scenes	2390	333284	330994	0			Novel	Relevant	1	330881	330391	531TRSEscan	107	15	3	Scenes	Scenes	4390	338282	333992	0			Repeat	Relevant	1	333879	333389	940TRSEscan	107	15	4	Faces	Scenes	6390	345274	338984	2			Novel	Irrelevant	1	338871	338381	628TRSEscan	107	15	5	Scenes	Scenes	4390	350275	345985	1			Repeat	Relevant	1	345872	345382	611TRSEscan	107	15	6	Scenes	Scenes	2390	353267	350977	0			Novel	Relevant	1	350864	350374	1043TRSEscan	107	15	7	Scenes	Scenes	4390	358266	353976	0			Novel	Relevant	1	353863	353373	692TRSEscan	107	15	8	Faces	Scenes	2390	361257	358967	3			Repeat	Irrelevant	1	358855	358365	668TRSEscan	107	15	9	Scenes	Scenes	6390	368256	361966	1			Repeat	Relevant	1	361853	361363	926TRSEscan	107	15	10	Faces	Scenes	4390	373258	368968	1			Repeat	Irrelevant	1	368855	368365	716TRSEscan	107	15	11	Scenes	Scenes	6390	380249	373959	1			Novel	Relevant	1	373847	373357	1572TRSEscan	107	15	12	Scenes	Scenes	2390	383251	380961	0			Novel	Relevant	1	380848	380358	1443TRSEscan	107	15	13	Faces	Scenes	2390	386250	383960	2			Novel	Irrelevant	1	383847	383357	692TRSEscan	107	15	14	Faces	Scenes	6390	393248	386958	0			Novel	Irrelevant	1	386845	386355	606TRSEscan	107	15	15	Scenes	Scenes	4390	398250	393960	2			Novel	Relevant	1	393847	393357	1196TRSEscan	107	15	16	Faces	Scenes	6390	405242	398952	1			Repeat	Irrelevant	1	398839	398349	532TRSEscan	107	15	17	Faces	Scenes	2390	408243	405953	0			Novel	Irrelevant	1	405840	405350	690TRSEscan	107	15	18	Faces	Scenes	4390	413242	408952	0			Novel	Irrelevant	1	408839	408349	483TRSEscan	107	15	19	Scenes	Scenes	2390	416234	413944	3			Repeat	Relevant	1	413831	413341	699TRSEscan	107	15	20	Faces	Scenes	4390	421232	416942	1			Novel	Irrelevant	1	416829	416339	557TRSEscan	107	15	21	Faces	Scenes	6390	428224	421934	0			Repeat	Irrelevant	1	421821	421331	493TRSEscan	107	16	1		Categorize					458301	457311						TRSEscan	107	16	2	Scenes	Categorize	2390	463203	460913	0			Novel	Irrelevant	1	460800	460310	1554TRSEscan	107	16	3	Scenes	Categorize	4390	468201	463911	0			Repeat	Irrelevant	1	463798	463308	611TRSEscan	107	16	4	Faces	Categorize	6390	475193	468903	2			Novel	Irrelevant	1	468790	468300	428TRSEscan	107	16	5	Scenes	Categorize	4390	480195	475905	1			Repeat	Irrelevant	1	475792	475302	585TRSEscan	107	16	6	Scenes	Categorize	2390	483187	480897	0			Novel	Irrelevant	1	480784	480294	569TRSEscan	107	16	7	Scenes	Categorize	4390	488185	483895	0			Novel	Irrelevant	1	483782	483292	1043TRSEscan	107	16	8	Faces	Categorize	2390	491177	488887	3			Repeat	Irrelevant	1	488774	488284	603TRSEscan	107	16	9	Scenes	Categorize	6390	498175	491885	1			Repeat	Irrelevant	1	491772	491282	821TRSEscan	107	16	10	Faces	Categorize	4390	503177	498887	1			Repeat	Irrelevant	1	498774	498284	667TRSEscan	107	16	11	Scenes	Categorize	6390	510169	503879	1			Novel	Irrelevant	1	503766	503276	787TRSEscan	107	16	12	Scenes	Categorize	2390	513170	510880	0			Novel	Irrelevant	1	510767	510277	586TRSEscan	107	16	13	Faces	Categorize	2390	516169	513879	2			Novel	Irrelevant	1	513766	513276	731TRSEscan	107	16	14	Faces	Categorize	6390	523167	516877	0			Novel	Irrelevant	1	516764	516274	653TRSEscan	107	16	15	Scenes	Categorize	4390	528169	523879	2			Novel	Irrelevant	1	523766	523276	763TRSEscan	107	16	16	Faces	Categorize	6390	535161	528871	1			Repeat	Irrelevant	1	528758	528268	658TRSEscan	107	16	17	Faces	Categorize	2390	538163	535873	0			Novel	Irrelevant	1	535760	535270	488TRSEscan	107	16	18	Faces	Categorize	4390	543161	538871	0			Novel	Irrelevant	1	538758	538268	506TRSEscan	107	16	19	Scenes	Categorize	2390	546153	543863	3			Repeat	Irrelevant	1	543750	543260	546TRSEscan	107	16	20	Faces	Categorize	4390	551151	546861	1			Novel	Irrelevant	1	546748	546258	572TRSEscan	107	16	21	Faces	Categorize	6390	558143	551853	0			Repeat	Irrelevant	1	551740	551250	572