ExperimentName	Subject	Block	Trial	Category	Condition	Delay	DelayFixation.OffsetTime	DelayFixation.OnsetTime	Distractors	Go.OffsetTime	Go.OnsetTime	Novelty	Relevance	Stim.ACC	Stim.OffsetTime	Stim.OnsetTime	Stim.RTTRSEscan	112	1	1		Faces					88073	87083						TRSEscan	112	1	2	Scenes	Faces	4390	94974	90684	0			Novel	Irrelevant	1	90571	90081	719TRSEscan	112	1	3	Faces	Faces	2390	97966	95676	1			Novel	Relevant	1	95563	95073	1031TRSEscan	112	1	4	Faces	Faces	2390	100964	98674	0			Novel	Relevant	1	98561	98071	729TRSEscan	112	1	5	Scenes	Faces	4390	105963	101673	2			Novel	Irrelevant	1	101560	101070	554TRSEscan	112	1	6	Faces	Faces	6390	112955	106665	1			Repeat	Relevant	1	106552	106062	938TRSEscan	112	1	7	Scenes	Faces	6390	119956	113666	1			Repeat	Irrelevant	1	113553	113063	544TRSEscan	112	1	8	Scenes	Faces	4390	124958	120668	0			Novel	Irrelevant	1	120555	120065	518TRSEscan	112	1	9	Scenes	Faces	2390	127950	125660	0			Repeat	Irrelevant	1	125547	125057	550TRSEscan	112	1	10	Faces	Faces	4390	132948	128658	3			Novel	Relevant	1	128545	128055	640TRSEscan	112	1	11	Scenes	Faces	6390	139940	133650	1			Repeat	Irrelevant	1	133537	133047	400TRSEscan	112	1	12	Scenes	Faces	2390	142942	140652	0			Novel	Irrelevant	1	140539	140049	486TRSEscan	112	1	13	Faces	Faces	4390	147940	143650	2			Repeat	Relevant	1	143537	143047	624TRSEscan	112	1	14	Scenes	Faces	2390	150932	148642	1			Repeat	Irrelevant	1	148529	148039	520TRSEscan	112	1	15	Scenes	Faces	6390	157930	151640	0			Novel	Irrelevant	1	151527	151037	522TRSEscan	112	1	16	Faces	Faces	6390	164932	158642	2			Repeat	Relevant	0	158529	158039	656TRSEscan	112	1	17	Faces	Faces	2390	167934	165644	0			Novel	Relevant	1	165531	165041	990TRSEscan	112	1	18	Faces	Faces	4390	172932	168642	0			Repeat	Relevant	1	168529	168039	679TRSEscan	112	1	19	Scenes	Faces	2390	175924	173634	3			Novel	Irrelevant	1	173521	173031	495TRSEscan	112	1	20	Faces	Faces	6390	182922	176632	1			Novel	Relevant	1	176519	176029	753TRSEscan	112	1	21	Faces	Faces	4390	187924	183634	0			Novel	Relevant	1	183521	183031	647TRSEscan	112	2	1		Scenes					217724	216734						TRSEscan	112	2	2	Scenes	Scenes	4390	224625	220335	0			Novel	Relevant	1	220222	219732	1026TRSEscan	112	2	3	Faces	Scenes	2390	227617	225327	1			Novel	Irrelevant	1	225214	224724	553TRSEscan	112	2	4	Faces	Scenes	2390	230615	228325	0			Novel	Irrelevant	1	228212	227722	507TRSEscan	112	2	5	Scenes	Scenes	4390	235614	231324	2			Novel	Relevant	1	231211	230721	660TRSEscan	112	2	6	Faces	Scenes	6390	242605	236315	1			Repeat	Irrelevant	1	236203	235713	508TRSEscan	112	2	7	Scenes	Scenes	6390	249607	243317	1			Repeat	Relevant	1	243204	242714	499TRSEscan	112	2	8	Scenes	Scenes	4390	254609	250319	0			Novel	Relevant	1	250206	249716	793TRSEscan	112	2	9	Scenes	Scenes	2390	257601	255311	0			Repeat	Relevant	1	255198	254708	993TRSEscan	112	2	10	Faces	Scenes	4390	262599	258309	3			Novel	Irrelevant	1	258196	257706	651TRSEscan	112	2	11	Scenes	Scenes	6390	269591	263301	1			Repeat	Relevant	1	263188	262698	835TRSEscan	112	2	12	Scenes	Scenes	2390	272593	270303	0			Novel	Relevant	1	270190	269700	696TRSEscan	112	2	13	Faces	Scenes	4390	277591	273301	2			Repeat	Irrelevant	1	273188	272698	530TRSEscan	112	2	14	Scenes	Scenes	2390	280583	278293	1			Repeat	Relevant	1	278180	277690	811TRSEscan	112	2	15	Scenes	Scenes	6390	287581	281291	0			Novel	Relevant	1	281178	280688	732TRSEscan	112	2	16	Faces	Scenes	6390	294583	288293	2			Repeat	Irrelevant	1	288180	287690	426TRSEscan	112	2	17	Faces	Scenes	2390	297585	295295	0			Novel	Irrelevant	1	295182	294692	496TRSEscan	112	2	18	Faces	Scenes	4390	302583	298293	0			Repeat	Irrelevant	1	298180	297690	530TRSEscan	112	2	19	Scenes	Scenes	2390	305575	303285	3			Novel	Relevant	0	303172	302682	722TRSEscan	112	2	20	Faces	Scenes	6390	312573	306283	1			Novel	Irrelevant	1	306170	305680	620TRSEscan	112	2	21	Faces	Scenes	4390	317575	313285	0			Novel	Irrelevant	1	313172	312682	578TRSEscan	112	3	1		Categorize					348932	347942						TRSEscan	112	3	2	Scenes	Categorize	4390	355834	351544	0			Novel	Irrelevant	1	351431	350941	590TRSEscan	112	3	3	Faces	Categorize	2390	358825	356535	1			Novel	Irrelevant	1	356423	355933	526TRSEscan	112	3	4	Faces	Categorize	2390	361824	359534	0			Novel	Irrelevant	1	359421	358931	520TRSEscan	112	3	5	Scenes	Categorize	4390	366822	362532	2			Novel	Irrelevant	1	362419	361929	522TRSEscan	112	3	6	Faces	Categorize	6390	373814	367524	1			Repeat	Irrelevant	1	367411	366921	450TRSEscan	112	3	7	Scenes	Categorize	6390	380816	374526	1			Repeat	Irrelevant	1	374413	373923	648TRSEscan	112	3	8	Scenes	Categorize	4390	385818	381528	0			Novel	Irrelevant	1	381415	380925	670TRSEscan	112	3	9	Scenes	Categorize	2390	388809	386519	0			Repeat	Irrelevant	1	386407	385917	509TRSEscan	112	3	10	Faces	Categorize	4390	393808	389518	3			Novel	Irrelevant	1	389405	388915	503TRSEscan	112	3	11	Scenes	Categorize	6390	400799	394509	1			Repeat	Irrelevant	1	394397	393907	607TRSEscan	112	3	12	Scenes	Categorize	2390	403801	401511	0			Novel	Irrelevant	1	401398	400908	758TRSEscan	112	3	13	Faces	Categorize	4390	408800	404510	2			Repeat	Irrelevant	1	404397	403907	527TRSEscan	112	3	14	Scenes	Categorize	2390	411791	409501	1			Repeat	Irrelevant	1	409389	408899	487TRSEscan	112	3	15	Scenes	Categorize	6390	418790	412500	0			Novel	Irrelevant	1	412387	411897	521TRSEscan	112	3	16	Faces	Categorize	6390	425791	419501	2			Repeat	Irrelevant	1	419388	418898	560TRSEscan	112	3	17	Faces	Categorize	2390	428793	426503	0			Novel	Irrelevant	1	426390	425900	454TRSEscan	112	3	18	Faces	Categorize	4390	433792	429502	0			Repeat	Irrelevant	1	429389	428899	495TRSEscan	112	3	19	Scenes	Categorize	2390	436783	434493	3			Novel	Irrelevant	1	434381	433891	694TRSEscan	112	3	20	Faces	Categorize	6390	443782	437492	1			Novel	Irrelevant	1	437379	436889	616TRSEscan	112	3	21	Faces	Categorize	4390	448784	444494	0			Novel	Irrelevant	1	444381	443891	494TRSEscan	112	4	1		Both					480409	479419						TRSEscan	112	4	2	Scenes	Both	4390	487310	483020	0			Novel	Relevant	0	482907	482417	1856TRSEscan	112	4	3	Faces	Both	2390	490302	488012	1			Novel	Relevant	1	487899	487409	1216TRSEscan	112	4	4	Faces	Both	2390	493300	491010	0			Novel	Relevant	1	490897	490407	945TRSEscan	112	4	5	Scenes	Both	4390	498299	494009	2			Novel	Relevant	1	493896	493406	1042TRSEscan	112	4	6	Faces	Both	6390	505291	499001	1			Repeat	Relevant	0	498888	498398	1394TRSEscan	112	4	7	Scenes	Both	6390	512292	506002	1			Repeat	Relevant	1	505889	505399	977TRSEscan	112	4	8	Scenes	Both	4390	517294	513004	0			Novel	Relevant	1	512891	512401	1111TRSEscan	112	4	9	Scenes	Both	2390	520286	517996	0			Repeat	Relevant	1	517883	517393	1151TRSEscan	112	4	10	Faces	Both	4390	525284	520994	3			Novel	Relevant	1	520881	520391	913TRSEscan	112	4	11	Scenes	Both	6390	532276	525986	1			Repeat	Relevant	1	525873	525383	969TRSEscan	112	4	12	Scenes	Both	2390	535278	532988	0			Novel	Relevant	1	532875	532385	1046TRSEscan	112	4	13	Faces	Both	4390	540276	535986	2			Repeat	Relevant	0	535873	535383	1152TRSEscan	112	4	14	Scenes	Both	2390	543268	540978	1			Repeat	Relevant	1	540865	540375	1152TRSEscan	112	4	15	Scenes	Both	6390	550266	543976	0			Novel	Relevant	1	543863	543373	826TRSEscan	112	4	16	Faces	Both	6390	557268	550978	2			Repeat	Relevant	1	550865	550375	1248TRSEscan	112	4	17	Faces	Both	2390	560270	557980	0			Novel	Relevant	1	557867	557377	774TRSEscan	112	4	18	Faces	Both	4390	565268	560978	0			Repeat	Relevant	1	560865	560375	968TRSEscan	112	4	19	Scenes	Both	2390	568260	565970	3			Novel	Relevant	1	565857	565367	1112TRSEscan	112	4	20	Faces	Both	6390	575258	568968	1			Novel	Relevant	1	568855	568365	802TRSEscan	112	4	21	Faces	Both	4390	580260	575970	0			Novel	Relevant	1	575857	575367	840TRSEscan	112	5	1		Scenes					87317	86327						TRSEscan	112	5	2	Faces	Scenes	2390	92218	89928	0			Novel	Irrelevant	1	89815	89325	420TRSEscan	112	5	3	Faces	Scenes	4390	97216	92926	0			Novel	Irrelevant	1	92813	92323	510TRSEscan	112	5	4	Scenes	Scenes	6390	104208	97918	2			Novel	Relevant	1	97805	97315	429TRSEscan	112	5	5	Faces	Scenes	4390	109210	104920	1			Repeat	Irrelevant	1	104807	104317	595TRSEscan	112	5	6	Faces	Scenes	2390	112202	109912	0			Repeat	Irrelevant	1	109799	109309	507TRSEscan	112	5	7	Faces	Scenes	6390	119200	112910	0			Novel	Irrelevant	1	112797	112307	493TRSEscan	112	5	8	Scenes	Scenes	2390	122202	119912	3			Novel	Relevant	1	119799	119309	659TRSEscan	112	5	9	Scenes	Scenes	4390	127200	122910	0			Repeat	Relevant	1	122797	122307	725TRSEscan	112	5	10	Faces	Scenes	2390	130192	127902	2			Repeat	Irrelevant	1	127789	127299	581TRSEscan	112	5	11	Scenes	Scenes	4390	135190	130900	1			Repeat	Relevant	1	130787	130297	751TRSEscan	112	5	12	Scenes	Scenes	6390	142182	135892	0			Novel	Relevant	1	135779	135289	567TRSEscan	112	5	13	Faces	Scenes	4390	147184	142894	2			Novel	Irrelevant	1	142781	142291	557TRSEscan	112	5	14	Scenes	Scenes	2390	150175	147885	1			Repeat	Relevant	1	147773	147283	980TRSEscan	112	5	15	Scenes	Scenes	6390	157174	150884	0			Novel	Relevant	1	150771	150281	1062TRSEscan	112	5	16	Scenes	Scenes	4390	162176	157886	0			Novel	Relevant	1	157773	157283	820TRSEscan	112	5	17	Faces	Scenes	6390	169167	162877	3			Novel	Irrelevant	1	162765	162275	628TRSEscan	112	5	18	Scenes	Scenes	2390	172169	169879	1			Repeat	Relevant	1	169766	169276	907TRSEscan	112	5	19	Faces	Scenes	2390	175168	172878	1			Repeat	Irrelevant	1	172765	172275	628TRSEscan	112	5	20	Faces	Scenes	6390	182166	175876	0			Novel	Irrelevant	1	175763	175273	598TRSEscan	112	5	21	Scenes	Scenes	4390	187168	182878	2			Novel	Relevant	1	182765	182275	780TRSEscan	112	6	1		Categorize					220351	219361						TRSEscan	112	6	2	Faces	Categorize	2390	225252	222962	0			Novel	Irrelevant	1	222849	222359	543TRSEscan	112	6	3	Faces	Categorize	4390	230251	225961	0			Novel	Irrelevant	1	225848	225358	464TRSEscan	112	6	4	Scenes	Categorize	6390	237242	230952	2			Novel	Irrelevant	1	230840	230350	592TRSEscan	112	6	5	Faces	Categorize	4390	242244	237954	1			Repeat	Irrelevant	1	237841	237351	439TRSEscan	112	6	6	Faces	Categorize	2390	245236	242946	0			Repeat	Irrelevant	1	242833	242343	471TRSEscan	112	6	7	Faces	Categorize	6390	252234	245944	0			Novel	Irrelevant	1	245831	245341	481TRSEscan	112	6	8	Scenes	Categorize	2390	255236	252946	3			Novel	Irrelevant	1	252833	252343	471TRSEscan	112	6	9	Scenes	Categorize	4390	260235	255945	0			Repeat	Irrelevant	1	255832	255342	560TRSEscan	112	6	10	Faces	Categorize	2390	263226	260936	2			Repeat	Irrelevant	1	260824	260334	495TRSEscan	112	6	11	Scenes	Categorize	4390	268225	263935	1			Repeat	Irrelevant	1	263822	263332	641TRSEscan	112	6	12	Scenes	Categorize	6390	275216	268926	0			Novel	Irrelevant	1	268814	268324	625TRSEscan	112	6	13	Faces	Categorize	4390	280218	275928	2			Novel	Irrelevant	1	275815	275325	648TRSEscan	112	6	14	Scenes	Categorize	2390	283210	280920	1			Repeat	Irrelevant	1	280807	280317	504TRSEscan	112	6	15	Scenes	Categorize	6390	290208	283918	0			Novel	Irrelevant	1	283805	283315	578TRSEscan	112	6	16	Scenes	Categorize	4390	295210	290920	0			Novel	Irrelevant	1	290807	290317	480TRSEscan	112	6	17	Faces	Categorize	6390	302202	295912	3			Novel	Irrelevant	1	295799	295309	456TRSEscan	112	6	18	Scenes	Categorize	2390	305204	302914	1			Repeat	Irrelevant	1	302801	302311	638TRSEscan	112	6	19	Faces	Categorize	2390	308202	305912	1			Repeat	Irrelevant	1	305799	305309	496TRSEscan	112	6	20	Faces	Categorize	6390	315200	308910	0			Novel	Irrelevant	1	308797	308307	498TRSEscan	112	6	21	Scenes	Categorize	4390	320202	315912	2			Novel	Irrelevant	1	315799	315309	671TRSEscan	112	7	1		Both					351576	350586						TRSEscan	112	7	2	Faces	Both	2390	356478	354188	0			Novel	Relevant	1	354075	353585	467TRSEscan	112	7	3	Faces	Both	4390	361476	357186	0			Novel	Relevant	1	357073	356583	677TRSEscan	112	7	4	Scenes	Both	6390	368468	362178	2			Novel	Relevant	0	362065	361575	773TRSEscan	112	7	5	Faces	Both	4390	373470	369180	1			Repeat	Relevant	1	369067	368577	1202TRSEscan	112	7	6	Faces	Both	2390	376461	374171	0			Repeat	Relevant	1	374059	373569	938TRSEscan	112	7	7	Faces	Both	6390	383460	377170	0			Novel	Relevant	1	377057	376567	692TRSEscan	112	7	8	Scenes	Both	2390	386462	384172	3			Novel	Relevant	1	384058	383568	1011TRSEscan	112	7	9	Scenes	Both	4390	391460	387170	0			Repeat	Relevant	1	387057	386567	844TRSEscan	112	7	10	Faces	Both	2390	394452	392162	2			Repeat	Relevant	0	392049	391559	932TRSEscan	112	7	11	Scenes	Both	4390	399450	395160	1			Repeat	Relevant	1	395047	394557	830TRSEscan	112	7	12	Scenes	Both	6390	406442	400152	0			Novel	Relevant	1	400039	399549	862TRSEscan	112	7	13	Faces	Both	4390	411444	407154	2			Novel	Relevant	1	407040	406550	685TRSEscan	112	7	14	Scenes	Both	2390	414435	412145	1			Repeat	Relevant	1	412033	411543	852TRSEscan	112	7	15	Scenes	Both	6390	421434	415144	0			Novel	Relevant	1	415031	414541	902TRSEscan	112	7	16	Scenes	Both	4390	426435	422145	0			Novel	Relevant	1	422032	421542	1500TRSEscan	112	7	17	Faces	Both	6390	433427	427137	3			Novel	Relevant	1	427024	426534	852TRSEscan	112	7	18	Scenes	Both	2390	436429	434139	1			Repeat	Relevant	1	434026	433536	914TRSEscan	112	7	19	Faces	Both	2390	439427	437137	1			Repeat	Relevant	1	437024	436534	756TRSEscan	112	7	20	Faces	Both	6390	446426	440136	0			Novel	Relevant	1	440023	439533	829TRSEscan	112	7	21	Scenes	Both	4390	451428	447138	2			Novel	Relevant	1	447025	446535	963TRSEscan	112	8	1		Faces					480892	479902						TRSEscan	112	8	2	Faces	Faces	2390	485793	483503	0			Novel	Relevant	1	483390	482900	453TRSEscan	112	8	3	Faces	Faces	4390	490792	486502	0			Novel	Relevant	1	486389	485899	526TRSEscan	112	8	4	Scenes	Faces	6390	497784	491494	2			Novel	Irrelevant	1	491381	490891	542TRSEscan	112	8	5	Faces	Faces	4390	502785	498495	1			Repeat	Relevant	1	498382	497892	669TRSEscan	112	8	6	Faces	Faces	2390	505777	503487	0			Repeat	Relevant	1	503374	502884	677TRSEscan	112	8	7	Faces	Faces	6390	512775	506485	0			Novel	Relevant	1	506372	505882	615TRSEscan	112	8	8	Scenes	Faces	2390	515777	513487	3			Novel	Irrelevant	1	513374	512884	565TRSEscan	112	8	9	Scenes	Faces	4390	520776	516486	0			Repeat	Irrelevant	1	516373	515883	614TRSEscan	112	8	10	Faces	Faces	2390	523767	521477	2			Repeat	Relevant	1	521365	520875	966TRSEscan	112	8	11	Scenes	Faces	4390	528766	524476	1			Repeat	Irrelevant	1	524363	523873	895TRSEscan	112	8	12	Scenes	Faces	6390	535757	529467	0			Novel	Irrelevant	1	529355	528865	743TRSEscan	112	8	13	Faces	Faces	4390	540759	536469	2			Novel	Relevant	1	536356	535866	582TRSEscan	112	8	14	Scenes	Faces	2390	543751	541461	1			Repeat	Irrelevant	1	541348	540858	614TRSEscan	112	8	15	Scenes	Faces	6390	550749	544459	0			Novel	Irrelevant	1	544346	543856	504TRSEscan	112	8	16	Scenes	Faces	4390	555751	551461	0			Novel	Irrelevant	1	551348	550858	430TRSEscan	112	8	17	Faces	Faces	6390	562743	556453	3			Novel	Relevant	1	556340	555850	622TRSEscan	112	8	18	Scenes	Faces	2390	565745	563455	1			Repeat	Irrelevant	1	563342	562852	524TRSEscan	112	8	19	Faces	Faces	2390	568743	566453	1			Repeat	Relevant	1	566340	565850	694TRSEscan	112	8	20	Faces	Faces	6390	575742	569452	0			Novel	Relevant	1	569339	568849	759TRSEscan	112	8	21	Scenes	Faces	4390	580743	576453	2			Novel	Irrelevant	1	576340	575850	518TRSEscan	112	9	1		Categorize					88160	87170						TRSEscan	112	9	2	Faces	Categorize	4390	95062	90772	0			Novel	Irrelevant	1	90659	90169	431TRSEscan	112	9	3	Faces	Categorize	2390	98053	95763	0			Novel	Irrelevant	1	95651	95161	463TRSEscan	112	9	4	Scenes	Categorize	2390	101052	98762	2			Novel	Irrelevant	1	98649	98159	577TRSEscan	112	9	5	Faces	Categorize	6390	108050	101760	1			Novel	Irrelevant	1	101647	101157	419TRSEscan	112	9	6	Faces	Categorize	4390	113052	108762	0			Repeat	Irrelevant	1	108649	108159	513TRSEscan	112	9	7	Faces	Categorize	6390	120044	113754	0			Novel	Irrelevant	1	113641	113151	545TRSEscan	112	9	8	Scenes	Categorize	2390	123045	120755	3			Novel	Irrelevant	1	120642	120152	647TRSEscan	112	9	9	Faces	Categorize	4390	128044	123754	1			Novel	Irrelevant	1	123641	123151	488TRSEscan	112	9	10	Faces	Categorize	6390	135036	128746	0			Repeat	Irrelevant	1	128633	128143	472TRSEscan	112	9	11	Scenes	Categorize	4390	140037	135747	2			Novel	Irrelevant	1	135634	135144	695TRSEscan	112	9	12	Scenes	Categorize	2390	143029	140739	0			Repeat	Irrelevant	1	140626	140136	567TRSEscan	112	9	13	Faces	Categorize	4390	148028	143738	2			Repeat	Irrelevant	1	143624	143134	425TRSEscan	112	9	14	Scenes	Categorize	2390	151019	148729	1			Novel	Irrelevant	1	148617	148127	520TRSEscan	112	9	15	Faces	Categorize	6390	158018	151728	1			Novel	Irrelevant	1	151615	151125	562TRSEscan	112	9	16	Scenes	Categorize	4390	163019	158729	1			Novel	Irrelevant	1	158616	158126	585TRSEscan	112	9	17	Scenes	Categorize	6390	170011	163721	0			Repeat	Irrelevant	1	163608	163118	585TRSEscan	112	9	18	Scenes	Categorize	2390	173013	170723	0			Repeat	Irrelevant	1	170610	170120	462TRSEscan	112	9	19	Faces	Categorize	2390	176011	173721	3			Repeat	Irrelevant	1	173608	173118	544TRSEscan	112	9	20	Scenes	Categorize	4390	181010	176720	1			Novel	Irrelevant	1	176607	176117	929TRSEscan	112	9	21	Scenes	Categorize	6390	188001	181711	0			Repeat	Irrelevant	1	181599	181109	609TRSEscan	112	10	1		Both					218230	217240						TRSEscan	112	10	2	Faces	Both	4390	225131	220841	0			Novel	Relevant	1	220728	220238	503TRSEscan	112	10	3	Faces	Both	2390	228123	225833	0			Novel	Relevant	1	225720	225230	663TRSEscan	112	10	4	Scenes	Both	2390	231121	228831	2			Novel	Relevant	1	228718	228228	817TRSEscan	112	10	5	Faces	Both	6390	238120	231830	1			Novel	Relevant	1	231717	231227	610TRSEscan	112	10	6	Faces	Both	4390	243121	238831	0			Repeat	Relevant	0	238718	238228	513TRSEscan	112	10	7	Faces	Both	6390	250113	243823	0			Novel	Relevant	1	243710	243220	673TRSEscan	112	10	8	Scenes	Both	2390	253115	250825	3			Novel	Relevant	1	250712	250222	815TRSEscan	112	10	9	Faces	Both	4390	258113	253823	1			Novel	Relevant	1	253710	253220	705TRSEscan	112	10	10	Faces	Both	6390	265105	258815	0			Repeat	Relevant	1	258702	258212	841TRSEscan	112	10	11	Scenes	Both	4390	270107	265817	2			Novel	Relevant	1	265704	265214	783TRSEscan	112	10	12	Scenes	Both	2390	273099	270809	0			Repeat	Relevant	1	270696	270206	758TRSEscan	112	10	13	Faces	Both	4390	278097	273807	2			Repeat	Relevant	1	273694	273204	968TRSEscan	112	10	14	Scenes	Both	2390	281089	278799	1			Novel	Relevant	1	278686	278196	1056TRSEscan	112	10	15	Faces	Both	6390	288087	281797	1			Novel	Relevant	1	281684	281194	738TRSEscan	112	10	16	Scenes	Both	4390	293089	288799	1			Novel	Relevant	1	288686	288196	848TRSEscan	112	10	17	Scenes	Both	6390	300081	293791	0			Repeat	Relevant	1	293678	293188	704TRSEscan	112	10	18	Scenes	Both	2390	303082	300792	0			Repeat	Relevant	1	300679	300189	671TRSEscan	112	10	19	Faces	Both	2390	306081	303791	3			Repeat	Relevant	1	303678	303188	776TRSEscan	112	10	20	Scenes	Both	4390	311079	306789	1			Novel	Relevant	1	306676	306186	762TRSEscan	112	10	21	Scenes	Both	6390	318071	311781	0			Repeat	Relevant	0	311668	311178	1474TRSEscan	112	11	1		Faces					347629	346639						TRSEscan	112	11	2	Faces	Faces	4390	354531	350241	0			Novel	Relevant	1	350128	349638	429TRSEscan	112	11	3	Faces	Faces	2390	357522	355232	0			Novel	Relevant	1	355120	354630	644TRSEscan	112	11	4	Scenes	Faces	2390	360521	358231	2			Novel	Irrelevant	1	358118	357628	743TRSEscan	112	11	5	Faces	Faces	6390	367519	361229	1			Novel	Relevant	1	361116	360626	545TRSEscan	112	11	6	Faces	Faces	4390	372521	368231	0			Repeat	Relevant	1	368118	367628	823TRSEscan	112	11	7	Faces	Faces	6390	379513	373223	0			Novel	Relevant	1	373110	372620	582TRSEscan	112	11	8	Scenes	Faces	2390	382515	380225	3			Novel	Irrelevant	1	380111	379621	381TRSEscan	112	11	9	Faces	Faces	4390	387513	383223	1			Novel	Relevant	1	383110	382620	582TRSEscan	112	11	10	Faces	Faces	6390	394505	388215	0			Repeat	Relevant	1	388102	387612	734TRSEscan	112	11	11	Scenes	Faces	4390	399506	395216	2			Novel	Irrelevant	1	395103	394613	469TRSEscan	112	11	12	Scenes	Faces	2390	402498	400208	0			Repeat	Irrelevant	1	400095	399605	461TRSEscan	112	11	13	Faces	Faces	4390	407497	403207	2			Repeat	Relevant	1	403094	402604	702TRSEscan	112	11	14	Scenes	Faces	2390	410488	408198	1			Novel	Irrelevant	1	408086	407596	598TRSEscan	112	11	15	Faces	Faces	6390	417487	411197	1			Novel	Relevant	1	411084	410594	688TRSEscan	112	11	16	Scenes	Faces	4390	422488	418198	1			Novel	Irrelevant	1	418085	417595	519TRSEscan	112	11	17	Scenes	Faces	6390	429480	423190	0			Repeat	Irrelevant	1	423077	422587	511TRSEscan	112	11	18	Scenes	Faces	2390	432482	430192	0			Repeat	Irrelevant	1	430079	429589	636TRSEscan	112	11	19	Faces	Faces	2390	435480	433190	3			Repeat	Relevant	1	433077	432587	718TRSEscan	112	11	20	Scenes	Faces	4390	440479	436189	1			Novel	Irrelevant	1	436076	435586	471TRSEscan	112	11	21	Scenes	Faces	6390	447470	441180	0			Repeat	Irrelevant	1	441068	440578	503TRSEscan	112	12	1		Scenes					479625	478635						TRSEscan	112	12	2	Faces	Scenes	4390	486527	482237	0			Novel	Irrelevant	1	482124	481634	455TRSEscan	112	12	3	Faces	Scenes	2390	489518	487228	0			Novel	Irrelevant	1	487116	486626	598TRSEscan	112	12	4	Scenes	Scenes	2390	492517	490227	2			Novel	Relevant	0	490114	489624	728TRSEscan	112	12	5	Faces	Scenes	6390	499515	493225	1			Novel	Irrelevant	1	493112	492622	578TRSEscan	112	12	6	Faces	Scenes	4390	504517	500227	0			Repeat	Irrelevant	1	500114	499624	792TRSEscan	112	12	7	Faces	Scenes	6390	511509	505219	0			Novel	Irrelevant	1	505106	504616	464TRSEscan	112	12	8	Scenes	Scenes	2390	514510	512220	3			Novel	Relevant	1	512107	511617	607TRSEscan	112	12	9	Faces	Scenes	4390	519509	515219	1			Novel	Irrelevant	1	515106	514616	552TRSEscan	112	12	10	Faces	Scenes	6390	526501	520211	0			Repeat	Irrelevant	1	520098	519608	480TRSEscan	112	12	11	Scenes	Scenes	4390	531502	527212	2			Novel	Relevant	1	527099	526609	1031TRSEscan	112	12	12	Scenes	Scenes	2390	534494	532204	0			Repeat	Relevant	1	532091	531601	727TRSEscan	112	12	13	Faces	Scenes	4390	539492	535202	2			Repeat	Irrelevant	1	535089	534599	593TRSEscan	112	12	14	Scenes	Scenes	2390	542484	540194	1			Novel	Relevant	1	540081	539591	744TRSEscan	112	12	15	Faces	Scenes	6390	549483	543193	1			Novel	Irrelevant	1	543079	542589	626TRSEscan	112	12	16	Scenes	Scenes	4390	554484	550194	1			Novel	Relevant	1	550081	549591	648TRSEscan	112	12	17	Scenes	Scenes	6390	561476	555186	0			Repeat	Relevant	1	555073	554583	616TRSEscan	112	12	18	Scenes	Scenes	2390	564478	562188	0			Repeat	Relevant	1	562075	561585	686TRSEscan	112	12	19	Faces	Scenes	2390	567476	565186	3			Repeat	Irrelevant	1	565073	564583	560TRSEscan	112	12	20	Scenes	Scenes	4390	572475	568185	1			Novel	Relevant	1	568072	567582	737TRSEscan	112	12	21	Scenes	Scenes	6390	579466	573176	0			Repeat	Relevant	1	573064	572574	769TRSEscan	112	13	1		Both					71338	70348						TRSEscan	112	13	2	Scenes	Both	2390	76239	73949	0			Novel	Relevant	1	73836	73346	519TRSEscan	112	13	3	Scenes	Both	4390	81237	76947	0			Repeat	Relevant	1	76835	76345	672TRSEscan	112	13	4	Faces	Both	6390	88229	81939	2			Novel	Relevant	1	81826	81336	560TRSEscan	112	13	5	Scenes	Both	4390	93231	88941	1			Repeat	Relevant	1	88828	88338	758TRSEscan	112	13	6	Scenes	Both	2390	96223	93933	0			Novel	Relevant	1	93820	93330	854TRSEscan	112	13	7	Scenes	Both	4390	101221	96931	0			Novel	Relevant	1	96818	96328	808TRSEscan	112	13	8	Faces	Both	2390	104213	101923	3			Repeat	Relevant	1	101810	101320	784TRSEscan	112	13	9	Scenes	Both	6390	111211	104921	1			Repeat	Relevant	1	104808	104318	938TRSEscan	112	13	10	Faces	Both	4390	116213	111923	1			Repeat	Relevant	1	111810	111320	752TRSEscan	112	13	11	Scenes	Both	6390	123205	116915	1			Novel	Relevant	1	116802	116312	512TRSEscan	112	13	12	Scenes	Both	2390	126207	123917	0			Novel	Relevant	1	123803	123313	871TRSEscan	112	13	13	Faces	Both	2390	129205	126915	2			Novel	Relevant	1	126802	126312	720TRSEscan	112	13	14	Faces	Both	6390	136203	129913	0			Novel	Relevant	1	129800	129310	666TRSEscan	112	13	15	Scenes	Both	4390	141205	136915	2			Novel	Relevant	1	136802	136312	711TRSEscan	112	13	16	Faces	Both	6390	148197	141907	1			Repeat	Relevant	1	141794	141304	983TRSEscan	112	13	17	Faces	Both	2390	151199	148909	0			Novel	Relevant	1	148796	148306	645TRSEscan	112	13	18	Faces	Both	4390	156197	151907	0			Novel	Relevant	1	151794	151304	591TRSEscan	112	13	19	Scenes	Both	2390	159189	156899	3			Repeat	Relevant	1	156786	156296	711TRSEscan	112	13	20	Faces	Both	4390	164187	159897	1			Novel	Relevant	1	159784	159294	1169TRSEscan	112	13	21	Faces	Both	6390	171179	164889	0			Repeat	Relevant	1	164776	164286	921TRSEscan	112	14	1		Faces					201072	200082						TRSEscan	112	14	2	Scenes	Faces	2390	205974	203684	0			Novel	Irrelevant	1	203571	203081	381TRSEscan	112	14	3	Scenes	Faces	4390	210972	206682	0			Repeat	Irrelevant	1	206569	206079	407TRSEscan	112	14	4	Faces	Faces	6390	217964	211674	2			Novel	Relevant	1	211561	211071	407TRSEscan	112	14	5	Scenes	Faces	4390	222965	218675	1			Repeat	Irrelevant	1	218562	218072	518TRSEscan	112	14	6	Scenes	Faces	2390	225957	223667	0			Novel	Irrelevant	1	223554	223064	542TRSEscan	112	14	7	Scenes	Faces	4390	230956	226666	0			Novel	Irrelevant	1	226553	226063	471TRSEscan	112	14	8	Faces	Faces	2390	233947	231657	3			Repeat	Relevant	0	231545	231055	567TRSEscan	112	14	9	Scenes	Faces	6390	240946	234656	1			Repeat	Irrelevant	1	234543	234053	792TRSEscan	112	14	10	Faces	Faces	4390	245947	241657	1			Repeat	Relevant	1	241544	241054	759TRSEscan	112	14	11	Scenes	Faces	6390	252939	246649	1			Novel	Irrelevant	1	246536	246046	663TRSEscan	112	14	12	Scenes	Faces	2390	255941	253651	0			Novel	Irrelevant	1	253538	253048	669TRSEscan	112	14	13	Faces	Faces	2390	258939	256649	2			Novel	Relevant	1	256536	256046	735TRSEscan	112	14	14	Faces	Faces	6390	265938	259648	0			Novel	Relevant	1	259535	259045	648TRSEscan	112	14	15	Scenes	Faces	4390	270940	266650	2			Novel	Irrelevant	1	266537	266047	918TRSEscan	112	14	16	Faces	Faces	6390	277931	271641	1			Repeat	Relevant	0	271529	271039	574TRSEscan	112	14	17	Faces	Faces	2390	280933	278643	0			Novel	Relevant	1	278530	278040	797TRSEscan	112	14	18	Faces	Faces	4390	285932	281642	0			Novel	Relevant	1	281529	281039	686TRSEscan	112	14	19	Scenes	Faces	2390	288923	286633	3			Repeat	Irrelevant	1	286521	286031	629TRSEscan	112	14	20	Faces	Faces	4390	293922	289632	1			Novel	Relevant	1	289519	289029	672TRSEscan	112	14	21	Faces	Faces	6390	300913	294623	0			Repeat	Relevant	1	294511	294021	639TRSEscan	112	15	1		Scenes					333036	332046						TRSEscan	112	15	2	Scenes	Scenes	2390	337936	335646	0			Novel	Relevant	1	335533	335043	417TRSEscan	112	15	3	Scenes	Scenes	4390	342934	338644	0			Repeat	Relevant	1	338531	338041	651TRSEscan	112	15	4	Faces	Scenes	6390	349926	343636	2			Novel	Irrelevant	1	343523	343033	426TRSEscan	112	15	5	Scenes	Scenes	4390	354928	350638	1			Repeat	Relevant	1	350525	350035	624TRSEscan	112	15	6	Scenes	Scenes	2390	357920	355630	0			Novel	Relevant	1	355517	355027	672TRSEscan	112	15	7	Scenes	Scenes	4390	362918	358628	0			Novel	Relevant	1	358515	358025	706TRSEscan	112	15	8	Faces	Scenes	2390	365910	363620	3			Repeat	Irrelevant	1	363507	363017	506TRSEscan	112	15	9	Scenes	Scenes	6390	372908	366618	1			Repeat	Relevant	1	366505	366015	604TRSEscan	112	15	10	Faces	Scenes	4390	377910	373620	1			Repeat	Irrelevant	1	373507	373017	514TRSEscan	112	15	11	Scenes	Scenes	6390	384902	378612	1			Novel	Relevant	1	378499	378009	842TRSEscan	112	15	12	Scenes	Scenes	2390	387903	385613	0			Novel	Relevant	1	385500	385010	609TRSEscan	112	15	13	Faces	Scenes	2390	390902	388612	2			Novel	Irrelevant	1	388499	388009	658TRSEscan	112	15	14	Faces	Scenes	6390	397900	391610	0			Novel	Irrelevant	1	391497	391007	620TRSEscan	112	15	15	Scenes	Scenes	4390	402902	398612	2			Novel	Relevant	1	398499	398009	730TRSEscan	112	15	16	Faces	Scenes	6390	409894	403604	1			Repeat	Irrelevant	1	403491	403001	561TRSEscan	112	15	17	Faces	Scenes	2390	412896	410606	0			Novel	Irrelevant	1	410492	410002	584TRSEscan	112	15	18	Faces	Scenes	4390	417894	413604	0			Novel	Irrelevant	1	413491	413001	441TRSEscan	112	15	19	Scenes	Scenes	2390	420886	418596	3			Repeat	Relevant	1	418483	417993	785TRSEscan	112	15	20	Faces	Scenes	4390	425884	421594	1			Novel	Irrelevant	1	421481	420991	523TRSEscan	112	15	21	Faces	Scenes	6390	432876	426586	0			Repeat	Irrelevant	1	426473	425983	531TRSEscan	112	16	1		Categorize					463993	463003						TRSEscan	112	16	2	Scenes	Categorize	2390	468893	466603	0			Novel	Irrelevant	1	466490	466000	433TRSEscan	112	16	3	Scenes	Categorize	4390	473892	469602	0			Repeat	Irrelevant	1	469489	468999	474TRSEscan	112	16	4	Faces	Categorize	6390	480883	474593	2			Novel	Irrelevant	1	474481	473991	546TRSEscan	112	16	5	Scenes	Categorize	4390	485885	481595	1			Repeat	Irrelevant	1	481482	480992	601TRSEscan	112	16	6	Scenes	Categorize	2390	488877	486587	0			Novel	Irrelevant	1	486474	485984	617TRSEscan	112	16	7	Scenes	Categorize	4390	493875	489585	0			Novel	Irrelevant	1	489472	488982	547TRSEscan	112	16	8	Faces	Categorize	2390	496867	494577	3			Repeat	Irrelevant	1	494464	493974	459TRSEscan	112	16	9	Scenes	Categorize	6390	503865	497575	1			Repeat	Irrelevant	1	497462	496972	565TRSEscan	112	16	10	Faces	Categorize	4390	508867	504577	1			Repeat	Irrelevant	1	504464	503974	563TRSEscan	112	16	11	Scenes	Categorize	6390	515859	509569	1			Novel	Irrelevant	1	509456	508966	634TRSEscan	112	16	12	Scenes	Categorize	2390	518861	516571	0			Novel	Irrelevant	1	516458	515968	720TRSEscan	112	16	13	Faces	Categorize	2390	521859	519569	2			Novel	Irrelevant	1	519456	518966	530TRSEscan	112	16	14	Faces	Categorize	6390	528857	522567	0			Novel	Irrelevant	1	522454	521964	460TRSEscan	112	16	15	Scenes	Categorize	4390	533859	529569	2			Novel	Irrelevant	1	529456	528966	642TRSEscan	112	16	16	Faces	Categorize	6390	540851	534561	1			Repeat	Irrelevant	1	534448	533958	602TRSEscan	112	16	17	Faces	Categorize	2390	543853	541563	0			Novel	Irrelevant	1	541450	540960	440TRSEscan	112	16	18	Faces	Categorize	4390	548851	544561	0			Novel	Irrelevant	1	544448	543958	530TRSEscan	112	16	19	Scenes	Categorize	2390	551843	549553	3			Repeat	Irrelevant	0	549440	548950	546TRSEscan	112	16	20	Faces	Categorize	4390	556841	552551	1			Novel	Irrelevant	1	552438	551948	628TRSEscan	112	16	21	Faces	Categorize	6390	563833	557543	0			Repeat	Irrelevant	1	557430	556940	524