ExperimentName	Subject	Block	Trial	Category	Condition	Delay	DelayFixation.OffsetTime	DelayFixation.OnsetTime	Distractors	Go.OffsetTime	Go.OnsetTime	Novelty	Relevance	Stim.ACC	Stim.OffsetTime	Stim.OnsetTime	Stim.RTTRSEscan	122	1	1		Faces					71093	70103						TRSEscan	122	1	2	Scenes	Faces	4390	77994	73704	0			Novel	Irrelevant	1	73591	73101	940TRSEscan	122	1	3	Faces	Faces	2390	80986	78696	1			Novel	Relevant	0	78583	78093	1332TRSEscan	122	1	4	Faces	Faces	2390	83984	81694	0			Novel	Relevant	0	81581	81091	798TRSEscan	122	1	5	Scenes	Faces	4390	88983	84693	2			Novel	Irrelevant	1	84580	84090	751TRSEscan	122	1	6	Faces	Faces	6390	95975	89685	1			Repeat	Relevant	1	89572	89082	1775TRSEscan	122	1	7	Scenes	Faces	6390	102976	96686	1			Repeat	Irrelevant	1	96573	96083	846TRSEscan	122	1	8	Scenes	Faces	4390	107978	103688	0			Novel	Irrelevant	1	103575	103085	692TRSEscan	122	1	9	Scenes	Faces	2390	110970	108680	0			Repeat	Irrelevant	1	108567	108077	652TRSEscan	122	1	10	Faces	Faces	4390	115968	111678	3			Novel	Relevant	0	111565	111075	2182TRSEscan	122	1	11	Scenes	Faces	6390	122960	116670	1			Repeat	Irrelevant	1	116557	116067	710TRSEscan	122	1	12	Scenes	Faces	2390	125962	123672	0			Novel	Irrelevant	1	123559	123069	780TRSEscan	122	1	13	Faces	Faces	4390	130960	126670	2			Repeat	Relevant	1	126557	126067	854TRSEscan	122	1	14	Scenes	Faces	2390	133952	131662	1			Repeat	Irrelevant	1	131549	131059	774TRSEscan	122	1	15	Scenes	Faces	6390	140951	134661	0			Novel	Irrelevant	1	134548	134058	559TRSEscan	122	1	16	Faces	Faces	6390	147952	141662	2			Repeat	Relevant	1	141549	141059	566TRSEscan	122	1	17	Faces	Faces	2390	150954	148664	0			Novel	Relevant	0	148551	148061	0TRSEscan	122	1	18	Faces	Faces	4390	155953	151663	0			Repeat	Relevant	1	151550	151060	133TRSEscan	122	1	19	Scenes	Faces	2390	158944	156654	3			Novel	Irrelevant	1	156542	156052	652TRSEscan	122	1	20	Faces	Faces	6390	165943	159653	1			Novel	Relevant	1	159540	159050	1102TRSEscan	122	1	21	Faces	Faces	4390	170945	166655	0			Novel	Relevant	1	166542	166052	844TRSEscan	122	2	1		Scenes					203458	202468						TRSEscan	122	2	2	Scenes	Scenes	4390	210359	206069	0			Novel	Relevant	1	205956	205466	1190TRSEscan	122	2	3	Faces	Scenes	2390	213351	211061	1			Novel	Irrelevant	1	210948	210458	2526TRSEscan	122	2	4	Faces	Scenes	2390	216350	214060	0			Novel	Irrelevant	1	213947	213457	1391TRSEscan	122	2	5	Scenes	Scenes	4390	221348	217058	2			Novel	Relevant	1	216945	216455	969TRSEscan	122	2	6	Faces	Scenes	6390	228340	222050	1			Repeat	Irrelevant	1	221937	221447	537TRSEscan	122	2	7	Scenes	Scenes	6390	235342	229052	1			Repeat	Relevant	1	228939	228449	799TRSEscan	122	2	8	Scenes	Scenes	4390	240343	236053	0			Novel	Relevant	1	235940	235450	621TRSEscan	122	2	9	Scenes	Scenes	2390	243335	241045	0			Repeat	Relevant	1	240932	240442	685TRSEscan	122	2	10	Faces	Scenes	4390	248334	244044	3			Novel	Irrelevant	1	243931	243441	894TRSEscan	122	2	11	Scenes	Scenes	6390	255325	249035	1			Repeat	Relevant	1	248923	248433	550TRSEscan	122	2	12	Scenes	Scenes	2390	258327	256037	0			Novel	Relevant	1	255924	255434	701TRSEscan	122	2	13	Faces	Scenes	4390	263326	259036	2			Repeat	Irrelevant	1	258923	258433	718TRSEscan	122	2	14	Scenes	Scenes	2390	266317	264027	1			Repeat	Relevant	1	263915	263425	902TRSEscan	122	2	15	Scenes	Scenes	6390	273316	267026	0			Novel	Relevant	1	266913	266423	696TRSEscan	122	2	16	Faces	Scenes	6390	280318	274028	2			Repeat	Irrelevant	1	273915	273425	582TRSEscan	122	2	17	Faces	Scenes	2390	283319	281029	0			Novel	Irrelevant	1	280916	280426	645TRSEscan	122	2	18	Faces	Scenes	4390	288318	284028	0			Repeat	Irrelevant	1	283915	283425	590TRSEscan	122	2	19	Scenes	Scenes	2390	291310	289020	3			Novel	Relevant	1	288907	288417	518TRSEscan	122	2	20	Faces	Scenes	6390	298308	292018	1			Novel	Irrelevant	1	291905	291415	584TRSEscan	122	2	21	Faces	Scenes	4390	303310	299020	0			Novel	Irrelevant	1	298907	298417	646TRSEscan	122	3	1		Categorize					332942	331952						TRSEscan	122	3	2	Scenes	Categorize	4390	339843	335553	0			Novel	Irrelevant	1	335440	334950	1040TRSEscan	122	3	3	Faces	Categorize	2390	342835	340545	1			Novel	Irrelevant	1	340432	339942	664TRSEscan	122	3	4	Faces	Categorize	2390	345834	343544	0			Novel	Irrelevant	1	343431	342941	761TRSEscan	122	3	5	Scenes	Categorize	4390	350832	346542	2			Novel	Irrelevant	1	346429	345939	907TRSEscan	122	3	6	Faces	Categorize	6390	357824	351534	1			Repeat	Irrelevant	1	351421	350931	467TRSEscan	122	3	7	Scenes	Categorize	6390	364826	358536	1			Repeat	Irrelevant	1	358423	357933	521TRSEscan	122	3	8	Scenes	Categorize	4390	369827	365537	0			Novel	Irrelevant	1	365424	364934	680TRSEscan	122	3	9	Scenes	Categorize	2390	372819	370529	0			Repeat	Irrelevant	1	370416	369926	656TRSEscan	122	3	10	Faces	Categorize	4390	377818	373528	3			Novel	Irrelevant	1	373415	372925	625TRSEscan	122	3	11	Scenes	Categorize	6390	384809	378519	1			Repeat	Irrelevant	1	378407	377917	985TRSEscan	122	3	12	Scenes	Categorize	2390	387811	385521	0			Novel	Irrelevant	1	385408	384918	632TRSEscan	122	3	13	Faces	Categorize	4390	392810	388520	2			Repeat	Irrelevant	1	388407	387917	689TRSEscan	122	3	14	Scenes	Categorize	2390	395801	393511	1			Repeat	Irrelevant	1	393399	392909	513TRSEscan	122	3	15	Scenes	Categorize	6390	402800	396510	0			Novel	Irrelevant	1	396397	395907	507TRSEscan	122	3	16	Faces	Categorize	6390	409802	403512	2			Repeat	Irrelevant	1	403399	402909	585TRSEscan	122	3	17	Faces	Categorize	2390	412804	410514	0			Novel	Irrelevant	1	410400	409910	671TRSEscan	122	3	18	Faces	Categorize	4390	417802	413512	0			Repeat	Irrelevant	1	413399	412909	513TRSEscan	122	3	19	Scenes	Categorize	2390	420794	418504	3			Novel	Irrelevant	1	418391	417901	705TRSEscan	122	3	20	Faces	Categorize	6390	427792	421502	1			Novel	Irrelevant	1	421389	420899	554TRSEscan	122	3	21	Faces	Categorize	4390	432794	428504	0			Novel	Irrelevant	1	428391	427901	576TRSEscan	122	4	1		Both					462359	461369						TRSEscan	122	4	2	Scenes	Both	4390	469261	464971	0			Novel	Relevant	1	464857	464367	1198TRSEscan	122	4	3	Faces	Both	2390	472252	469962	1			Novel	Relevant	1	469850	469360	853TRSEscan	122	4	4	Faces	Both	2390	475251	472961	0			Novel	Relevant	0	472848	472358	1535TRSEscan	122	4	5	Scenes	Both	4390	480249	475959	2			Novel	Relevant	1	475846	475356	1193TRSEscan	122	4	6	Faces	Both	6390	487241	480951	1			Repeat	Relevant	1	480838	480348	1209TRSEscan	122	4	7	Scenes	Both	6390	494243	487953	1			Repeat	Relevant	1	487840	487350	1182TRSEscan	122	4	8	Scenes	Both	4390	499244	494954	0			Novel	Relevant	1	494841	494351	1038TRSEscan	122	4	9	Scenes	Both	2390	502236	499946	0			Repeat	Relevant	1	499833	499343	1309TRSEscan	122	4	10	Faces	Both	4390	507235	502945	3			Novel	Relevant	1	502832	502342	1118TRSEscan	122	4	11	Scenes	Both	6390	514226	507936	1			Repeat	Relevant	1	507824	507334	1310TRSEscan	122	4	12	Scenes	Both	2390	517228	514938	0			Novel	Relevant	1	514825	514335	845TRSEscan	122	4	13	Faces	Both	4390	522227	517937	2			Repeat	Relevant	1	517824	517334	2006TRSEscan	122	4	14	Scenes	Both	2390	525218	522928	1			Repeat	Relevant	1	522816	522326	1094TRSEscan	122	4	15	Scenes	Both	6390	532217	525927	0			Novel	Relevant	1	525814	525324	696TRSEscan	122	4	16	Faces	Both	6390	539219	532929	2			Repeat	Relevant	1	532816	532326	526TRSEscan	122	4	17	Faces	Both	2390	542220	539930	0			Novel	Relevant	1	539817	539327	1213TRSEscan	122	4	18	Faces	Both	4390	547219	542929	0			Repeat	Relevant	1	542816	542326	1238TRSEscan	122	4	19	Scenes	Both	2390	550211	547921	3			Novel	Relevant	1	547808	547318	1302TRSEscan	122	4	20	Faces	Both	6390	557209	550919	1			Novel	Relevant	1	550806	550316	1040TRSEscan	122	4	21	Faces	Both	4390	562211	557921	0			Novel	Relevant	1	557808	557318	982TRSEscan	122	5	1		Scenes					70919	69929						TRSEscan	122	5	2	Faces	Scenes	2390	75821	73531	0			Novel	Irrelevant	1	73418	72928	938TRSEscan	122	5	3	Faces	Scenes	4390	80819	76529	0			Novel	Irrelevant	1	76416	75926	596TRSEscan	122	5	4	Scenes	Scenes	6390	87811	81521	2			Novel	Relevant	1	81408	80918	1052TRSEscan	122	5	5	Faces	Scenes	4390	92813	88523	1			Repeat	Irrelevant	1	88410	87920	882TRSEscan	122	5	6	Faces	Scenes	2390	95805	93515	0			Repeat	Irrelevant	1	93402	92912	578TRSEscan	122	5	7	Faces	Scenes	6390	102803	96513	0			Novel	Irrelevant	1	96400	95910	612TRSEscan	122	5	8	Scenes	Scenes	2390	105805	103515	3			Novel	Relevant	1	103402	102912	906TRSEscan	122	5	9	Scenes	Scenes	4390	110803	106513	0			Repeat	Relevant	1	106400	105910	1452TRSEscan	122	5	10	Faces	Scenes	2390	113795	111505	2			Repeat	Irrelevant	1	111392	110902	660TRSEscan	122	5	11	Scenes	Scenes	4390	118793	114503	1			Repeat	Relevant	1	114390	113900	830TRSEscan	122	5	12	Scenes	Scenes	6390	125785	119495	0			Novel	Relevant	1	119382	118892	678TRSEscan	122	5	13	Faces	Scenes	4390	130787	126497	2			Novel	Irrelevant	1	126384	125894	676TRSEscan	122	5	14	Scenes	Scenes	2390	133779	131489	1			Repeat	Relevant	1	131376	130886	828TRSEscan	122	5	15	Scenes	Scenes	6390	140777	134487	0			Novel	Relevant	1	134374	133884	878TRSEscan	122	5	16	Scenes	Scenes	4390	145779	141489	0			Novel	Relevant	1	141376	140886	716TRSEscan	122	5	17	Faces	Scenes	6390	152771	146481	3			Novel	Irrelevant	1	146368	145878	684TRSEscan	122	5	18	Scenes	Scenes	2390	155773	153483	1			Repeat	Relevant	1	153370	152880	729TRSEscan	122	5	19	Faces	Scenes	2390	158771	156481	1			Repeat	Irrelevant	1	156368	155878	715TRSEscan	122	5	20	Faces	Scenes	6390	165769	159479	0			Novel	Irrelevant	1	159366	158876	773TRSEscan	122	5	21	Scenes	Scenes	4390	170771	166481	2			Novel	Relevant	1	166368	165878	755TRSEscan	122	6	1		Categorize					202866	201876						TRSEscan	122	6	2	Faces	Categorize	2390	207767	205477	0			Novel	Irrelevant	1	205364	204874	703TRSEscan	122	6	3	Faces	Categorize	4390	212766	208476	0			Novel	Irrelevant	1	208363	207873	520TRSEscan	122	6	4	Scenes	Categorize	6390	219757	213467	2			Novel	Irrelevant	1	213355	212865	544TRSEscan	122	6	5	Faces	Categorize	4390	224759	220469	1			Repeat	Irrelevant	1	220356	219866	655TRSEscan	122	6	6	Faces	Categorize	2390	227751	225461	0			Repeat	Irrelevant	1	225348	224858	479TRSEscan	122	6	7	Faces	Categorize	6390	234749	228459	0			Novel	Irrelevant	1	228346	227856	536TRSEscan	122	6	8	Scenes	Categorize	2390	237751	235461	3			Novel	Irrelevant	1	235348	234858	582TRSEscan	122	6	9	Scenes	Categorize	4390	242750	238460	0			Repeat	Irrelevant	1	238347	237857	471TRSEscan	122	6	10	Faces	Categorize	2390	245741	243451	2			Repeat	Irrelevant	1	243339	242849	471TRSEscan	122	6	11	Scenes	Categorize	4390	250740	246450	1			Repeat	Irrelevant	1	246337	245847	425TRSEscan	122	6	12	Scenes	Categorize	6390	257732	251442	0			Novel	Irrelevant	1	251329	250839	681TRSEscan	122	6	13	Faces	Categorize	4390	262733	258443	2			Novel	Irrelevant	1	258330	257840	608TRSEscan	122	6	14	Scenes	Categorize	2390	265725	263435	1			Repeat	Irrelevant	1	263322	262832	592TRSEscan	122	6	15	Scenes	Categorize	6390	272724	266434	0			Novel	Irrelevant	1	266321	265831	473TRSEscan	122	6	16	Scenes	Categorize	4390	277725	273435	0			Novel	Irrelevant	1	273322	272832	544TRSEscan	122	6	17	Faces	Categorize	6390	284717	278427	3			Novel	Irrelevant	1	278314	277824	664TRSEscan	122	6	18	Scenes	Categorize	2390	287719	285429	1			Repeat	Irrelevant	1	285316	284826	790TRSEscan	122	6	19	Faces	Categorize	2390	290717	288427	1			Repeat	Irrelevant	1	288314	287824	808TRSEscan	122	6	20	Faces	Categorize	6390	297716	291426	0			Novel	Irrelevant	1	291313	290823	641TRSEscan	122	6	21	Scenes	Categorize	4390	302718	298428	2			Novel	Irrelevant	1	298315	297825	575TRSEscan	122	7	1		Both					334377	333387						TRSEscan	122	7	2	Faces	Both	2390	339278	336988	0			Novel	Relevant	1	336875	336385	750TRSEscan	122	7	3	Faces	Both	4390	344277	339987	0			Novel	Relevant	1	339873	339383	728TRSEscan	122	7	4	Scenes	Both	6390	351268	344978	2			Novel	Relevant	1	344866	344376	927TRSEscan	122	7	5	Faces	Both	4390	356270	351980	1			Repeat	Relevant	1	351867	351377	654TRSEscan	122	7	6	Faces	Both	2390	359262	356972	0			Repeat	Relevant	1	356859	356369	662TRSEscan	122	7	7	Faces	Both	6390	366260	359970	0			Novel	Relevant	1	359857	359367	848TRSEscan	122	7	8	Scenes	Both	2390	369262	366972	3			Novel	Relevant	1	366859	366369	990TRSEscan	122	7	9	Scenes	Both	4390	374260	369970	0			Repeat	Relevant	1	369857	369367	800TRSEscan	122	7	10	Faces	Both	2390	377252	374962	2			Repeat	Relevant	0	374849	374359	904TRSEscan	122	7	11	Scenes	Both	4390	382251	377961	1			Repeat	Relevant	1	377848	377358	1305TRSEscan	122	7	12	Scenes	Both	6390	389242	382952	0			Novel	Relevant	1	382840	382350	1001TRSEscan	122	7	13	Faces	Both	4390	394244	389954	2			Novel	Relevant	1	389841	389351	1120TRSEscan	122	7	14	Scenes	Both	2390	397236	394946	1			Repeat	Relevant	1	394833	394343	784TRSEscan	122	7	15	Scenes	Both	6390	404234	397944	0			Novel	Relevant	1	397831	397341	1194TRSEscan	122	7	16	Scenes	Both	4390	409236	404946	0			Novel	Relevant	1	404833	404343	1104TRSEscan	122	7	17	Faces	Both	6390	416228	409938	3			Novel	Relevant	1	409825	409335	656TRSEscan	122	7	18	Scenes	Both	2390	419230	416940	1			Repeat	Relevant	1	416827	416337	1253TRSEscan	122	7	19	Faces	Both	2390	422228	419938	1			Repeat	Relevant	1	419825	419335	927TRSEscan	122	7	20	Faces	Both	6390	429227	422937	0			Novel	Relevant	1	422824	422334	744TRSEscan	122	7	21	Scenes	Both	4390	434229	429939	2			Novel	Relevant	1	429825	429335	927TRSEscan	122	8	1		Faces					465821	464831						TRSEscan	122	8	2	Faces	Faces	2390	470722	468432	0			Novel	Relevant	1	468319	467829	777TRSEscan	122	8	3	Faces	Faces	4390	475720	471430	0			Novel	Relevant	1	471317	470827	651TRSEscan	122	8	4	Scenes	Faces	6390	482712	476422	2			Novel	Irrelevant	1	476309	475819	699TRSEscan	122	8	5	Faces	Faces	4390	487714	483424	1			Repeat	Relevant	1	483311	482821	665TRSEscan	122	8	6	Faces	Faces	2390	490706	488416	0			Repeat	Relevant	1	488303	487813	968TRSEscan	122	8	7	Faces	Faces	6390	497704	491414	0			Novel	Relevant	1	491301	490811	803TRSEscan	122	8	8	Scenes	Faces	2390	500706	498416	3			Novel	Irrelevant	1	498303	497813	816TRSEscan	122	8	9	Scenes	Faces	4390	505704	501414	0			Repeat	Irrelevant	1	501301	500811	507TRSEscan	122	8	10	Faces	Faces	2390	508696	506406	2			Repeat	Relevant	1	506293	505803	922TRSEscan	122	8	11	Scenes	Faces	4390	513695	509405	1			Repeat	Irrelevant	1	509292	508802	475TRSEscan	122	8	12	Scenes	Faces	6390	520686	514396	0			Novel	Irrelevant	1	514284	513794	547TRSEscan	122	8	13	Faces	Faces	4390	525688	521398	2			Novel	Relevant	1	521285	520795	778TRSEscan	122	8	14	Scenes	Faces	2390	528680	526390	1			Repeat	Irrelevant	1	526277	525787	602TRSEscan	122	8	15	Scenes	Faces	6390	535678	529388	0			Novel	Irrelevant	1	529275	528785	596TRSEscan	122	8	16	Scenes	Faces	4390	540680	536390	0			Novel	Irrelevant	1	536277	535787	426TRSEscan	122	8	17	Faces	Faces	6390	547672	541382	3			Novel	Relevant	1	541269	540779	714TRSEscan	122	8	18	Scenes	Faces	2390	550674	548384	1			Repeat	Irrelevant	1	548271	547781	496TRSEscan	122	8	19	Faces	Faces	2390	553672	551382	1			Repeat	Relevant	1	551269	550779	698TRSEscan	122	8	20	Faces	Faces	6390	560671	554381	0			Novel	Relevant	1	554267	553777	700TRSEscan	122	8	21	Scenes	Faces	4390	565672	561382	2			Novel	Irrelevant	1	561269	560779	466TRSEscan	122	9	1		Categorize					72477	71487						TRSEscan	122	9	2	Faces	Categorize	4390	79378	75088	0			Novel	Irrelevant	1	74975	74485	584TRSEscan	122	9	3	Faces	Categorize	2390	82370	80080	0			Novel	Irrelevant	1	79967	79477	560TRSEscan	122	9	4	Scenes	Categorize	2390	85368	83078	2			Novel	Irrelevant	1	82965	82475	570TRSEscan	122	9	5	Faces	Categorize	6390	92367	86077	1			Novel	Irrelevant	1	85964	85474	419TRSEscan	122	9	6	Faces	Categorize	4390	97368	93078	0			Repeat	Irrelevant	1	92965	92475	482TRSEscan	122	9	7	Faces	Categorize	6390	104360	98070	0			Novel	Irrelevant	1	97957	97467	474TRSEscan	122	9	8	Scenes	Categorize	2390	107362	105072	3			Novel	Irrelevant	1	104959	104469	616TRSEscan	122	9	9	Faces	Categorize	4390	112360	108070	1			Novel	Irrelevant	1	107957	107467	530TRSEscan	122	9	10	Faces	Categorize	6390	119352	113062	0			Repeat	Irrelevant	1	112949	112459	562TRSEscan	122	9	11	Scenes	Categorize	4390	124354	120064	2			Novel	Irrelevant	1	119951	119461	632TRSEscan	122	9	12	Scenes	Categorize	2390	127346	125056	0			Repeat	Irrelevant	1	124943	124453	832TRSEscan	122	9	13	Faces	Categorize	4390	132344	128054	2			Repeat	Irrelevant	1	127941	127451	714TRSEscan	122	9	14	Scenes	Categorize	2390	135336	133046	1			Novel	Irrelevant	1	132933	132443	594TRSEscan	122	9	15	Faces	Categorize	6390	142334	136044	1			Novel	Irrelevant	1	135931	135441	612TRSEscan	122	9	16	Scenes	Categorize	4390	147336	143046	1			Novel	Irrelevant	1	142933	142443	610TRSEscan	122	9	17	Scenes	Categorize	6390	154328	148038	0			Repeat	Irrelevant	1	147925	147435	586TRSEscan	122	9	18	Scenes	Categorize	2390	157330	155040	0			Repeat	Irrelevant	1	154927	154437	679TRSEscan	122	9	19	Faces	Categorize	2390	160328	158038	3			Repeat	Irrelevant	1	157925	157435	657TRSEscan	122	9	20	Scenes	Categorize	4390	165327	161037	1			Novel	Irrelevant	1	160924	160434	738TRSEscan	122	9	21	Scenes	Categorize	6390	172318	166028	0			Repeat	Irrelevant	1	165916	165426	570TRSEscan	122	10	1		Both					206634	205644						TRSEscan	122	10	2	Faces	Both	4390	213535	209245	0			Novel	Relevant	1	209132	208642	666TRSEscan	122	10	3	Faces	Both	2390	216527	214237	0			Novel	Relevant	1	214124	213634	842TRSEscan	122	10	4	Scenes	Both	2390	219526	217236	2			Novel	Relevant	1	217123	216633	883TRSEscan	122	10	5	Faces	Both	6390	226524	220234	1			Novel	Relevant	1	220121	219631	981TRSEscan	122	10	6	Faces	Both	4390	231526	227236	0			Repeat	Relevant	1	227123	226633	930TRSEscan	122	10	7	Faces	Both	6390	238518	232228	0			Novel	Relevant	1	232115	231625	698TRSEscan	122	10	8	Scenes	Both	2390	241519	239229	3			Novel	Relevant	1	239116	238626	921TRSEscan	122	10	9	Faces	Both	4390	246518	242228	1			Novel	Relevant	1	242115	241625	850TRSEscan	122	10	10	Faces	Both	6390	253510	247220	0			Repeat	Relevant	1	247107	246617	714TRSEscan	122	10	11	Scenes	Both	4390	258511	254221	2			Novel	Relevant	1	254108	253618	881TRSEscan	122	10	12	Scenes	Both	2390	261503	259213	0			Repeat	Relevant	0	259100	258610	1321TRSEscan	122	10	13	Faces	Both	4390	266502	262212	2			Repeat	Relevant	0	262099	261609	1178TRSEscan	122	10	14	Scenes	Both	2390	269493	267203	1			Novel	Relevant	1	267091	266601	898TRSEscan	122	10	15	Faces	Both	6390	276492	270202	1			Novel	Relevant	1	270089	269599	772TRSEscan	122	10	16	Scenes	Both	4390	281494	277204	1			Novel	Relevant	1	277091	276601	906TRSEscan	122	10	17	Scenes	Both	6390	288485	282195	0			Repeat	Relevant	1	282083	281593	2018TRSEscan	122	10	18	Scenes	Both	2390	291487	289197	0			Repeat	Relevant	1	289084	288594	1297TRSEscan	122	10	19	Faces	Both	2390	294486	292196	3			Repeat	Relevant	0	292083	291593	866TRSEscan	122	10	20	Scenes	Both	4390	299484	295194	1			Novel	Relevant	1	295081	294591	900TRSEscan	122	10	21	Scenes	Both	6390	306476	300186	0			Repeat	Relevant	1	300073	299583	620TRSEscan	122	11	1		Faces					339754	338764						TRSEscan	122	11	2	Faces	Faces	4390	346654	342364	0			Novel	Relevant	1	342251	341761	841TRSEscan	122	11	3	Faces	Faces	2390	349646	347356	0			Novel	Relevant	1	347243	346753	713TRSEscan	122	11	4	Scenes	Faces	2390	352645	350355	2			Novel	Irrelevant	1	350242	349752	842TRSEscan	122	11	5	Faces	Faces	6390	359643	353353	1			Novel	Relevant	1	353240	352750	740TRSEscan	122	11	6	Faces	Faces	4390	364645	360355	0			Repeat	Relevant	1	360242	359752	834TRSEscan	122	11	7	Faces	Faces	6390	371637	365347	0			Novel	Relevant	1	365234	364744	738TRSEscan	122	11	8	Scenes	Faces	2390	374638	372348	3			Novel	Irrelevant	0	372235	371745	905TRSEscan	122	11	9	Faces	Faces	4390	379637	375347	1			Novel	Relevant	1	375234	374744	745TRSEscan	122	11	10	Faces	Faces	6390	386629	380339	0			Repeat	Relevant	1	380226	379736	770TRSEscan	122	11	11	Scenes	Faces	4390	391630	387340	2			Novel	Irrelevant	1	387227	386737	713TRSEscan	122	11	12	Scenes	Faces	2390	394622	392332	0			Repeat	Irrelevant	1	392219	391729	585TRSEscan	122	11	13	Faces	Faces	4390	399621	395331	2			Repeat	Relevant	0	395218	394728	914TRSEscan	122	11	14	Scenes	Faces	2390	402612	400322	1			Novel	Irrelevant	1	400210	399720	538TRSEscan	122	11	15	Faces	Faces	6390	409611	403321	1			Novel	Relevant	1	403208	402718	748TRSEscan	122	11	16	Scenes	Faces	4390	414613	410323	1			Novel	Irrelevant	1	410210	409720	570TRSEscan	122	11	17	Scenes	Faces	6390	421604	415314	0			Repeat	Irrelevant	1	415202	414712	633TRSEscan	122	11	18	Scenes	Faces	2390	424606	422316	0			Repeat	Irrelevant	1	422203	421713	624TRSEscan	122	11	19	Faces	Faces	2390	427605	425315	3			Repeat	Relevant	1	425202	424712	841TRSEscan	122	11	20	Scenes	Faces	4390	432603	428313	1			Novel	Irrelevant	1	428200	427710	555TRSEscan	122	11	21	Scenes	Faces	6390	439595	433305	0			Repeat	Irrelevant	1	433192	432702	531TRSEscan	122	12	1		Scenes					469773	468783						TRSEscan	122	12	2	Faces	Scenes	4390	476674	472384	0			Novel	Irrelevant	1	472272	471782	547TRSEscan	122	12	3	Faces	Scenes	2390	479666	477376	0			Novel	Irrelevant	1	477263	476773	412TRSEscan	122	12	4	Scenes	Scenes	2390	482665	480375	2			Novel	Relevant	1	480262	479772	1037TRSEscan	122	12	5	Faces	Scenes	6390	489663	483373	1			Novel	Irrelevant	1	483260	482770	575TRSEscan	122	12	6	Faces	Scenes	4390	494665	490375	0			Repeat	Irrelevant	1	490262	489772	541TRSEscan	122	12	7	Faces	Scenes	6390	501657	495367	0			Novel	Irrelevant	1	495254	494764	517TRSEscan	122	12	8	Scenes	Scenes	2390	504658	502368	3			Novel	Relevant	1	502255	501765	716TRSEscan	122	12	9	Faces	Scenes	4390	509657	505367	1			Novel	Irrelevant	1	505254	504764	532TRSEscan	122	12	10	Faces	Scenes	6390	516649	510359	0			Repeat	Irrelevant	1	510246	509756	484TRSEscan	122	12	11	Scenes	Scenes	4390	521650	517360	2			Novel	Relevant	1	517247	516757	875TRSEscan	122	12	12	Scenes	Scenes	2390	524642	522352	0			Repeat	Relevant	1	522239	521749	755TRSEscan	122	12	13	Faces	Scenes	4390	529641	525351	2			Repeat	Irrelevant	1	525238	524748	668TRSEscan	122	12	14	Scenes	Scenes	2390	532632	530342	1			Novel	Relevant	1	530230	529740	892TRSEscan	122	12	15	Faces	Scenes	6390	539631	533341	1			Novel	Irrelevant	1	533228	532738	494TRSEscan	122	12	16	Scenes	Scenes	4390	544633	540343	1			Novel	Relevant	1	540230	539740	668TRSEscan	122	12	17	Scenes	Scenes	6390	551624	545334	0			Repeat	Relevant	1	545222	544732	836TRSEscan	122	12	18	Scenes	Scenes	2390	554626	552336	0			Repeat	Relevant	1	552223	551733	835TRSEscan	122	12	19	Faces	Scenes	2390	557625	555335	3			Repeat	Irrelevant	1	555222	554732	668TRSEscan	122	12	20	Scenes	Scenes	4390	562623	558333	1			Novel	Relevant	1	558220	557730	846TRSEscan	122	12	21	Scenes	Scenes	6390	569615	563325	0			Repeat	Relevant	0	563212	562722	870TRSEscan	122	13	1		Both					62486	61496						TRSEscan	122	13	2	Scenes	Both	2390	67388	65098	0			Novel	Relevant	1	64985	64495	852TRSEscan	122	13	3	Scenes	Both	4390	72386	68096	0			Repeat	Relevant	1	67983	67493	870TRSEscan	122	13	4	Faces	Both	6390	79378	73088	2			Novel	Relevant	1	72975	72485	750TRSEscan	122	13	5	Scenes	Both	4390	84380	80090	1			Repeat	Relevant	0	79977	79487	1235TRSEscan	122	13	6	Scenes	Both	2390	87372	85082	0			Novel	Relevant	1	84969	84479	868TRSEscan	122	13	7	Scenes	Both	4390	92370	88080	0			Novel	Relevant	1	87967	87477	878TRSEscan	122	13	8	Faces	Both	2390	95362	93072	3			Repeat	Relevant	1	92959	92469	654TRSEscan	122	13	9	Scenes	Both	6390	102360	96070	1			Repeat	Relevant	1	95957	95467	1055TRSEscan	122	13	10	Faces	Both	4390	107362	103072	1			Repeat	Relevant	1	102959	102469	669TRSEscan	122	13	11	Scenes	Both	6390	114354	108064	1			Novel	Relevant	1	107951	107461	709TRSEscan	122	13	12	Scenes	Both	2390	117356	115066	0			Novel	Relevant	1	114953	114463	923TRSEscan	122	13	13	Faces	Both	2390	120354	118064	2			Novel	Relevant	1	117951	117461	981TRSEscan	122	13	14	Faces	Both	6390	127352	121062	0			Novel	Relevant	1	120949	120459	911TRSEscan	122	13	15	Scenes	Both	4390	132354	128064	2			Novel	Relevant	1	127951	127461	773TRSEscan	122	13	16	Faces	Both	6390	139346	133056	1			Repeat	Relevant	1	132943	132453	861TRSEscan	122	13	17	Faces	Both	2390	142348	140058	0			Novel	Relevant	1	139945	139455	931TRSEscan	122	13	18	Faces	Both	4390	147346	143056	0			Novel	Relevant	1	142943	142453	941TRSEscan	122	13	19	Scenes	Both	2390	150338	148048	3			Repeat	Relevant	1	147935	147445	1237TRSEscan	122	13	20	Faces	Both	4390	155336	151046	1			Novel	Relevant	1	150933	150443	934TRSEscan	122	13	21	Faces	Both	6390	162328	156038	0			Repeat	Relevant	1	155925	155435	1127TRSEscan	122	14	1		Faces					191367	190377						TRSEscan	122	14	2	Scenes	Faces	2390	196269	193979	0			Novel	Irrelevant	1	193866	193376	849TRSEscan	122	14	3	Scenes	Faces	4390	201267	196977	0			Repeat	Irrelevant	1	196864	196374	492TRSEscan	122	14	4	Faces	Faces	6390	208259	201969	2			Novel	Relevant	1	201856	201366	435TRSEscan	122	14	5	Scenes	Faces	4390	213261	208971	1			Repeat	Irrelevant	1	208858	208368	577TRSEscan	122	14	6	Scenes	Faces	2390	216253	213963	0			Novel	Irrelevant	1	213850	213360	521TRSEscan	122	14	7	Scenes	Faces	4390	221251	216961	0			Novel	Irrelevant	1	216848	216358	683TRSEscan	122	14	8	Faces	Faces	2390	224243	221953	3			Repeat	Relevant	1	221840	221350	659TRSEscan	122	14	9	Scenes	Faces	6390	231241	224951	1			Repeat	Irrelevant	1	224838	224348	549TRSEscan	122	14	10	Faces	Faces	4390	236243	231953	1			Repeat	Relevant	1	231840	231350	875TRSEscan	122	14	11	Scenes	Faces	6390	243235	236945	1			Novel	Irrelevant	1	236832	236342	531TRSEscan	122	14	12	Scenes	Faces	2390	246237	243947	0			Novel	Irrelevant	1	243834	243344	521TRSEscan	122	14	13	Faces	Faces	2390	249235	246945	2			Novel	Relevant	1	246832	246342	803TRSEscan	122	14	14	Faces	Faces	6390	256233	249943	0			Novel	Relevant	1	249830	249340	765TRSEscan	122	14	15	Scenes	Faces	4390	261235	256945	2			Novel	Irrelevant	1	256832	256342	531TRSEscan	122	14	16	Faces	Faces	6390	268227	261937	1			Repeat	Relevant	1	261824	261334	667TRSEscan	122	14	17	Faces	Faces	2390	271229	268939	0			Novel	Relevant	1	268826	268336	689TRSEscan	122	14	18	Faces	Faces	4390	276227	271937	0			Novel	Relevant	1	271824	271334	1051TRSEscan	122	14	19	Scenes	Faces	2390	279219	276929	3			Repeat	Irrelevant	1	276816	276326	450TRSEscan	122	14	20	Faces	Faces	4390	284217	279927	1			Novel	Relevant	1	279814	279324	700TRSEscan	122	14	21	Faces	Faces	6390	291209	284919	0			Repeat	Relevant	1	284806	284316	604TRSEscan	122	15	1		Scenes					321471	320481						TRSEscan	122	15	2	Scenes	Scenes	2390	326373	324083	0			Novel	Relevant	1	323970	323480	704TRSEscan	122	15	3	Scenes	Scenes	4390	331371	327081	0			Repeat	Relevant	1	326968	326478	674TRSEscan	122	15	4	Faces	Scenes	6390	338363	332073	2			Novel	Irrelevant	1	331960	331470	578TRSEscan	122	15	5	Scenes	Scenes	4390	343365	339075	1			Repeat	Relevant	1	338962	338472	592TRSEscan	122	15	6	Scenes	Scenes	2390	346356	344066	0			Novel	Relevant	1	343954	343464	776TRSEscan	122	15	7	Scenes	Scenes	4390	351355	347065	0			Novel	Relevant	1	346952	346462	682TRSEscan	122	15	8	Faces	Scenes	2390	354347	352057	3			Repeat	Irrelevant	1	351944	351454	546TRSEscan	122	15	9	Scenes	Scenes	6390	361345	355055	1			Repeat	Relevant	1	354942	354452	1068TRSEscan	122	15	10	Faces	Scenes	4390	366347	362057	1			Repeat	Irrelevant	1	361944	361454	545TRSEscan	122	15	11	Scenes	Scenes	6390	373339	367049	1			Novel	Relevant	1	366936	366446	705TRSEscan	122	15	12	Scenes	Scenes	2390	376340	374050	0			Novel	Relevant	1	373937	373447	744TRSEscan	122	15	13	Faces	Scenes	2390	379339	377049	2			Novel	Irrelevant	1	376936	376446	617TRSEscan	122	15	14	Faces	Scenes	6390	386337	380047	0			Novel	Irrelevant	1	379934	379444	571TRSEscan	122	15	15	Scenes	Scenes	4390	391339	387049	2			Novel	Relevant	1	386936	386446	833TRSEscan	122	15	16	Faces	Scenes	6390	398331	392041	1			Repeat	Irrelevant	1	391928	391438	569TRSEscan	122	15	17	Faces	Scenes	2390	401333	399043	0			Novel	Irrelevant	1	398930	398440	503TRSEscan	122	15	18	Faces	Scenes	4390	406331	402041	0			Novel	Irrelevant	1	401928	401438	457TRSEscan	122	15	19	Scenes	Scenes	2390	409323	407033	3			Repeat	Relevant	1	406920	406430	2001TRSEscan	122	15	20	Faces	Scenes	4390	414321	410031	1			Novel	Irrelevant	1	409918	409428	715TRSEscan	122	15	21	Faces	Scenes	6390	421313	415023	0			Repeat	Irrelevant	1	414910	414420	492TRSEscan	122	16	1		Categorize					451893	450903						TRSEscan	122	16	2	Scenes	Categorize	2390	456795	454505	0			Novel	Irrelevant	1	454392	453902	976TRSEscan	122	16	3	Scenes	Categorize	4390	461793	457503	0			Repeat	Irrelevant	1	457390	456900	506TRSEscan	122	16	4	Faces	Categorize	6390	468785	462495	2			Novel	Irrelevant	1	462382	461892	602TRSEscan	122	16	5	Scenes	Categorize	4390	473787	469497	1			Repeat	Irrelevant	1	469384	468894	608TRSEscan	122	16	6	Scenes	Categorize	2390	476778	474488	0			Novel	Irrelevant	1	474376	473886	680TRSEscan	122	16	7	Scenes	Categorize	4390	481777	477487	0			Novel	Irrelevant	1	477374	476884	498TRSEscan	122	16	8	Faces	Categorize	2390	484769	482479	3			Repeat	Irrelevant	1	482366	481876	538TRSEscan	122	16	9	Scenes	Categorize	6390	491767	485477	1			Repeat	Irrelevant	1	485364	484874	572TRSEscan	122	16	10	Faces	Categorize	4390	496769	492479	1			Repeat	Irrelevant	1	492366	491876	506TRSEscan	122	16	11	Scenes	Categorize	6390	503761	497471	1			Novel	Irrelevant	1	497358	496868	602TRSEscan	122	16	12	Scenes	Categorize	2390	506762	504472	0			Novel	Irrelevant	1	504359	503869	601TRSEscan	122	16	13	Faces	Categorize	2390	509761	507471	2			Novel	Irrelevant	1	507358	506868	554TRSEscan	122	16	14	Faces	Categorize	6390	516759	510469	0			Novel	Irrelevant	1	510356	509866	692TRSEscan	122	16	15	Scenes	Categorize	4390	521761	517471	2			Novel	Irrelevant	1	517358	516868	394TRSEscan	122	16	16	Faces	Categorize	6390	528753	522463	1			Repeat	Irrelevant	1	522350	521860	602TRSEscan	122	16	17	Faces	Categorize	2390	531755	529465	0			Novel	Irrelevant	1	529352	528862	600TRSEscan	122	16	18	Faces	Categorize	4390	536753	532463	0			Novel	Irrelevant	1	532350	531860	506TRSEscan	122	16	19	Scenes	Categorize	2390	539745	537455	3			Repeat	Irrelevant	1	537342	536852	554TRSEscan	122	16	20	Faces	Categorize	4390	544743	540453	1			Novel	Irrelevant	1	540340	539850	580TRSEscan	122	16	21	Faces	Categorize	6390	551735	545445	0			Repeat	Irrelevant	1	545332	544842	587