ExperimentName	Subject	Block	Trial	Category	Condition	Delay	DelayFixation.OffsetTime	DelayFixation.OnsetTime	Distractors	Go.OffsetTime	Go.OnsetTime	Novelty	Relevance	Stim.ACC	Stim.OffsetTime	Stim.OnsetTime	Stim.RTTRSEscan	123	1	1		Faces					76895	75905						TRSEscan	123	1	2	Scenes	Faces	4390	83796	79506	0			Novel	Irrelevant	1	79393	78903	962TRSEscan	123	1	3	Faces	Faces	2390	86788	84498	1			Novel	Relevant	1	84385	83895	818TRSEscan	123	1	4	Faces	Faces	2390	89786	87496	0			Novel	Relevant	1	87383	86893	820TRSEscan	123	1	5	Scenes	Faces	4390	94785	90495	2			Novel	Irrelevant	1	90382	89892	621TRSEscan	123	1	6	Faces	Faces	6390	101776	95486	1			Repeat	Relevant	1	95374	94884	749TRSEscan	123	1	7	Scenes	Faces	6390	108778	102488	1			Repeat	Irrelevant	1	102375	101885	884TRSEscan	123	1	8	Scenes	Faces	4390	113780	109490	0			Novel	Irrelevant	1	109377	108887	698TRSEscan	123	1	9	Scenes	Faces	2390	116772	114482	0			Repeat	Irrelevant	1	114369	113879	682TRSEscan	123	1	10	Faces	Faces	4390	121770	117480	3			Novel	Relevant	1	117367	116877	1011TRSEscan	123	1	11	Scenes	Faces	6390	128762	122472	1			Repeat	Irrelevant	1	122359	121869	636TRSEscan	123	1	12	Scenes	Faces	2390	131764	129474	0			Novel	Irrelevant	1	129360	128870	642TRSEscan	123	1	13	Faces	Faces	4390	136762	132472	2			Repeat	Relevant	0	132359	131869	955TRSEscan	123	1	14	Scenes	Faces	2390	139754	137464	1			Repeat	Irrelevant	1	137351	136861	739TRSEscan	123	1	15	Scenes	Faces	6390	146752	140462	0			Novel	Irrelevant	1	140349	139859	709TRSEscan	123	1	16	Faces	Faces	6390	153754	147464	2			Repeat	Relevant	1	147351	146861	907TRSEscan	123	1	17	Faces	Faces	2390	156756	154466	0			Novel	Relevant	1	154353	153863	945TRSEscan	123	1	18	Faces	Faces	4390	161754	157464	0			Repeat	Relevant	1	157351	156861	779TRSEscan	123	1	19	Scenes	Faces	2390	164746	162456	3			Novel	Irrelevant	1	162343	161853	843TRSEscan	123	1	20	Faces	Faces	6390	171744	165454	1			Novel	Relevant	1	165341	164851	1085TRSEscan	123	1	21	Faces	Faces	4390	176746	172456	0			Novel	Relevant	1	172343	171853	962TRSEscan	123	2	1		Scenes					207735	206745						TRSEscan	123	2	2	Scenes	Scenes	4390	214636	210346	0			Novel	Relevant	1	210233	209743	584TRSEscan	123	2	3	Faces	Scenes	2390	217628	215338	1			Novel	Irrelevant	1	215225	214735	672TRSEscan	123	2	4	Faces	Scenes	2390	220626	218336	0			Novel	Irrelevant	1	218223	217733	698TRSEscan	123	2	5	Scenes	Scenes	4390	225624	221334	2			Novel	Relevant	1	221221	220731	660TRSEscan	123	2	6	Faces	Scenes	6390	232616	226326	1			Repeat	Irrelevant	1	226213	225723	1059TRSEscan	123	2	7	Scenes	Scenes	6390	239618	233328	1			Repeat	Relevant	1	233215	232725	625TRSEscan	123	2	8	Scenes	Scenes	4390	244620	240330	0			Novel	Relevant	1	240217	239727	695TRSEscan	123	2	9	Scenes	Scenes	2390	247611	245321	0			Repeat	Relevant	1	245209	244719	959TRSEscan	123	2	10	Faces	Scenes	4390	252610	248320	3			Novel	Irrelevant	1	248207	247717	721TRSEscan	123	2	11	Scenes	Scenes	6390	259601	253311	1			Repeat	Relevant	1	253199	252709	1585TRSEscan	123	2	12	Scenes	Scenes	2390	262603	260313	0			Novel	Relevant	1	260200	259710	832TRSEscan	123	2	13	Faces	Scenes	4390	267602	263312	2			Repeat	Irrelevant	1	263199	262709	737TRSEscan	123	2	14	Scenes	Scenes	2390	270593	268303	1			Repeat	Relevant	0	268191	267701	849TRSEscan	123	2	15	Scenes	Scenes	6390	277592	271302	0			Novel	Relevant	1	271189	270699	931TRSEscan	123	2	16	Faces	Scenes	6390	284594	278304	2			Repeat	Irrelevant	1	278191	277701	649TRSEscan	123	2	17	Faces	Scenes	2390	287595	285305	0			Novel	Irrelevant	1	285192	284702	671TRSEscan	123	2	18	Faces	Scenes	4390	292594	288304	0			Repeat	Irrelevant	1	288191	287701	720TRSEscan	123	2	19	Scenes	Scenes	2390	295585	293295	3			Novel	Relevant	1	293183	292693	880TRSEscan	123	2	20	Faces	Scenes	6390	302584	296294	1			Novel	Irrelevant	1	296181	295691	690TRSEscan	123	2	21	Faces	Scenes	4390	307586	303296	0			Novel	Irrelevant	1	303183	302693	672TRSEscan	123	3	1		Categorize					338122	337132						TRSEscan	123	3	2	Scenes	Categorize	4390	345024	340734	0			Novel	Irrelevant	1	340620	340130	666TRSEscan	123	3	3	Faces	Categorize	2390	348015	345725	1			Novel	Irrelevant	1	345613	345123	601TRSEscan	123	3	4	Faces	Categorize	2390	351014	348724	0			Novel	Irrelevant	1	348611	348121	643TRSEscan	123	3	5	Scenes	Categorize	4390	356012	351722	2			Novel	Irrelevant	1	351609	351119	693TRSEscan	123	3	6	Faces	Categorize	6390	363004	356714	1			Repeat	Irrelevant	1	356601	356111	565TRSEscan	123	3	7	Scenes	Categorize	6390	370005	363715	1			Repeat	Irrelevant	1	363602	363112	692TRSEscan	123	3	8	Scenes	Categorize	4390	375007	370717	0			Novel	Irrelevant	1	370604	370114	658TRSEscan	123	3	9	Scenes	Categorize	2390	377999	375709	0			Repeat	Irrelevant	1	375596	375106	714TRSEscan	123	3	10	Faces	Categorize	4390	382997	378707	3			Novel	Irrelevant	1	378594	378104	580TRSEscan	123	3	11	Scenes	Categorize	6390	389989	383699	1			Repeat	Irrelevant	1	383586	383096	667TRSEscan	123	3	12	Scenes	Categorize	2390	392991	390701	0			Novel	Irrelevant	1	390588	390098	881TRSEscan	123	3	13	Faces	Categorize	4390	397989	393699	2			Repeat	Irrelevant	1	393586	393096	611TRSEscan	123	3	14	Scenes	Categorize	2390	400981	398691	1			Repeat	Irrelevant	1	398578	398088	947TRSEscan	123	3	15	Scenes	Categorize	6390	407979	401689	0			Novel	Irrelevant	1	401576	401086	709TRSEscan	123	3	16	Faces	Categorize	6390	414981	408691	2			Repeat	Irrelevant	1	408578	408088	595TRSEscan	123	3	17	Faces	Categorize	2390	417983	415693	0			Novel	Irrelevant	1	415580	415090	697TRSEscan	123	3	18	Faces	Categorize	4390	422981	418691	0			Repeat	Irrelevant	1	418578	418088	787TRSEscan	123	3	19	Scenes	Categorize	2390	425973	423683	3			Novel	Irrelevant	1	423570	423080	1339TRSEscan	123	3	20	Faces	Categorize	6390	432971	426681	1			Novel	Irrelevant	1	426568	426078	565TRSEscan	123	3	21	Faces	Categorize	4390	437973	433683	0			Novel	Irrelevant	1	433570	433080	602TRSEscan	123	4	1		Both					470955	469965						TRSEscan	123	4	2	Scenes	Both	4390	477857	473567	0			Novel	Relevant	1	473454	472964	574TRSEscan	123	4	3	Faces	Both	2390	480848	478558	1			Novel	Relevant	1	478446	477956	686TRSEscan	123	4	4	Faces	Both	2390	483847	481557	0			Novel	Relevant	1	481444	480954	848TRSEscan	123	4	5	Scenes	Both	4390	488845	484555	2			Novel	Relevant	1	484442	483952	882TRSEscan	123	4	6	Faces	Both	6390	495837	489547	1			Repeat	Relevant	1	489434	488944	994TRSEscan	123	4	7	Scenes	Both	6390	502839	496549	1			Repeat	Relevant	1	496436	495946	927TRSEscan	123	4	8	Scenes	Both	4390	507840	503550	0			Novel	Relevant	1	503437	502947	958TRSEscan	123	4	9	Scenes	Both	2390	510832	508542	0			Repeat	Relevant	1	508429	507939	846TRSEscan	123	4	10	Faces	Both	4390	515830	511540	3			Novel	Relevant	1	511427	510937	792TRSEscan	123	4	11	Scenes	Both	6390	522822	516532	1			Repeat	Relevant	1	516419	515929	792TRSEscan	123	4	12	Scenes	Both	2390	525824	523534	0			Novel	Relevant	1	523421	522931	854TRSEscan	123	4	13	Faces	Both	4390	530822	526532	2			Repeat	Relevant	1	526419	525929	1360TRSEscan	123	4	14	Scenes	Both	2390	533814	531524	1			Repeat	Relevant	1	531411	530921	856TRSEscan	123	4	15	Scenes	Both	6390	540812	534522	0			Novel	Relevant	1	534409	533919	770TRSEscan	123	4	16	Faces	Both	6390	547814	541524	2			Repeat	Relevant	1	541411	540921	1119TRSEscan	123	4	17	Faces	Both	2390	550816	548526	0			Novel	Relevant	1	548413	547923	869TRSEscan	123	4	18	Faces	Both	4390	555814	551524	0			Repeat	Relevant	0	551411	550921	711TRSEscan	123	4	19	Scenes	Both	2390	558806	556516	3			Novel	Relevant	1	556403	555913	767TRSEscan	123	4	20	Faces	Both	6390	565805	559515	1			Novel	Relevant	1	559402	558912	784TRSEscan	123	4	21	Faces	Both	4390	570806	566516	0			Novel	Relevant	1	566403	565913	751TRSEscan	123	5	1		Scenes					81849	80859						TRSEscan	123	5	2	Faces	Scenes	2390	86750	84460	0			Novel	Irrelevant	1	84348	83858	912TRSEscan	123	5	3	Faces	Scenes	4390	91749	87459	0			Novel	Irrelevant	1	87346	86856	465TRSEscan	123	5	4	Scenes	Scenes	6390	98740	92450	2			Novel	Relevant	1	92338	91848	513TRSEscan	123	5	5	Faces	Scenes	4390	103742	99452	1			Repeat	Irrelevant	1	99339	98849	632TRSEscan	123	5	6	Faces	Scenes	2390	106734	104444	0			Repeat	Irrelevant	1	104331	103841	624TRSEscan	123	5	7	Faces	Scenes	6390	113732	107442	0			Novel	Irrelevant	1	107329	106839	546TRSEscan	123	5	8	Scenes	Scenes	2390	116734	114444	3			Novel	Relevant	1	114331	113841	856TRSEscan	123	5	9	Scenes	Scenes	4390	121732	117442	0			Repeat	Relevant	0	117329	116839	634TRSEscan	123	5	10	Faces	Scenes	2390	124724	122434	2			Repeat	Irrelevant	1	122321	121831	594TRSEscan	123	5	11	Scenes	Scenes	4390	129723	125433	1			Repeat	Relevant	1	125319	124829	1092TRSEscan	123	5	12	Scenes	Scenes	6390	136714	130424	0			Novel	Relevant	1	130312	129822	851TRSEscan	123	5	13	Faces	Scenes	4390	141716	137426	2			Novel	Irrelevant	1	137313	136823	745TRSEscan	123	5	14	Scenes	Scenes	2390	144708	142418	1			Repeat	Relevant	1	142305	141815	841TRSEscan	123	5	15	Scenes	Scenes	6390	151706	145416	0			Novel	Relevant	1	145303	144813	683TRSEscan	123	5	16	Scenes	Scenes	4390	156708	152418	0			Novel	Relevant	1	152305	151815	785TRSEscan	123	5	17	Faces	Scenes	6390	163700	157410	3			Novel	Irrelevant	1	157297	156807	801TRSEscan	123	5	18	Scenes	Scenes	2390	166701	164411	1			Repeat	Relevant	1	164298	163808	984TRSEscan	123	5	19	Faces	Scenes	2390	169700	167410	1			Repeat	Irrelevant	1	167297	166807	641TRSEscan	123	5	20	Faces	Scenes	6390	176698	170408	0			Novel	Irrelevant	1	170295	169805	571TRSEscan	123	5	21	Scenes	Scenes	4390	181700	177410	2			Novel	Relevant	1	177297	176807	777TRSEscan	123	6	1		Categorize					230612	229622						TRSEscan	123	6	2	Faces	Categorize	2390	235513	233223	0			Novel	Irrelevant	1	233110	232620	1011TRSEscan	123	6	3	Faces	Categorize	4390	240512	236222	0			Novel	Irrelevant	1	236109	235619	492TRSEscan	123	6	4	Scenes	Categorize	6390	247503	241213	2			Novel	Irrelevant	1	241101	240611	724TRSEscan	123	6	5	Faces	Categorize	4390	252505	248215	1			Repeat	Irrelevant	1	248102	247612	642TRSEscan	123	6	6	Faces	Categorize	2390	255497	253207	0			Repeat	Irrelevant	1	253094	252604	682TRSEscan	123	6	7	Faces	Categorize	6390	262495	256205	0			Novel	Irrelevant	1	256092	255602	652TRSEscan	123	6	8	Scenes	Categorize	2390	265497	263207	3			Novel	Irrelevant	1	263094	262604	818TRSEscan	123	6	9	Scenes	Categorize	4390	270496	266206	0			Repeat	Irrelevant	1	266092	265602	684TRSEscan	123	6	10	Faces	Categorize	2390	273487	271197	2			Repeat	Irrelevant	1	271085	270595	579TRSEscan	123	6	11	Scenes	Categorize	4390	278486	274196	1			Repeat	Irrelevant	1	274083	273593	757TRSEscan	123	6	12	Scenes	Categorize	6390	285477	279187	0			Novel	Irrelevant	1	279075	278585	797TRSEscan	123	6	13	Faces	Categorize	4390	290479	286189	2			Novel	Irrelevant	1	286076	285586	660TRSEscan	123	6	14	Scenes	Categorize	2390	293471	291181	1			Repeat	Irrelevant	1	291068	290578	1388TRSEscan	123	6	15	Scenes	Categorize	6390	300469	294179	0			Novel	Irrelevant	1	294066	293576	606TRSEscan	123	6	16	Scenes	Categorize	4390	305471	301181	0			Novel	Irrelevant	1	301068	300578	947TRSEscan	123	6	17	Faces	Categorize	6390	312463	306173	3			Novel	Irrelevant	1	306060	305570	707TRSEscan	123	6	18	Scenes	Categorize	2390	315465	313175	1			Repeat	Irrelevant	1	313061	312571	682TRSEscan	123	6	19	Faces	Categorize	2390	318463	316173	1			Repeat	Irrelevant	1	316060	315570	907TRSEscan	123	6	20	Faces	Categorize	6390	325461	319171	0			Novel	Irrelevant	1	319058	318568	725TRSEscan	123	6	21	Scenes	Categorize	4390	330463	326173	2			Novel	Irrelevant	1	326060	325570	811TRSEscan	123	7	1		Both					361787	360797						TRSEscan	123	7	2	Faces	Both	2390	366688	364398	0			Novel	Relevant	1	364285	363795	561TRSEscan	123	7	3	Faces	Both	4390	371687	367397	0			Novel	Relevant	1	367284	366794	754TRSEscan	123	7	4	Scenes	Both	6390	378678	372388	2			Novel	Relevant	1	372276	371786	810TRSEscan	123	7	5	Faces	Both	4390	383680	379390	1			Repeat	Relevant	1	379277	378787	1281TRSEscan	123	7	6	Faces	Both	2390	386672	384382	0			Repeat	Relevant	1	384269	383779	873TRSEscan	123	7	7	Faces	Both	6390	393670	387380	0			Novel	Relevant	1	387267	386777	659TRSEscan	123	7	8	Scenes	Both	2390	396672	394382	3			Novel	Relevant	1	394269	393779	1137TRSEscan	123	7	9	Scenes	Both	4390	401670	397380	0			Repeat	Relevant	1	397267	396777	746TRSEscan	123	7	10	Faces	Both	2390	404662	402372	2			Repeat	Relevant	1	402259	401769	1058TRSEscan	123	7	11	Scenes	Both	4390	409660	405370	1			Repeat	Relevant	1	405257	404767	884TRSEscan	123	7	12	Scenes	Both	6390	416652	410362	0			Novel	Relevant	1	410249	409759	1084TRSEscan	123	7	13	Faces	Both	4390	421654	417364	2			Novel	Relevant	1	417251	416761	794TRSEscan	123	7	14	Scenes	Both	2390	424646	422356	1			Repeat	Relevant	0	422243	421753	2490TRSEscan	123	7	15	Scenes	Both	6390	431644	425354	0			Novel	Relevant	1	425241	424751	764TRSEscan	123	7	16	Scenes	Both	4390	436646	432356	0			Novel	Relevant	1	432243	431753	738TRSEscan	123	7	17	Faces	Both	6390	443638	437348	3			Novel	Relevant	1	437235	436745	682TRSEscan	123	7	18	Scenes	Both	2390	446639	444349	1			Repeat	Relevant	1	444236	443746	889TRSEscan	123	7	19	Faces	Both	2390	449638	447348	1			Repeat	Relevant	1	447235	446745	962TRSEscan	123	7	20	Faces	Both	6390	456636	450346	0			Novel	Relevant	1	450233	449743	836TRSEscan	123	7	21	Scenes	Both	4390	461638	457348	2			Novel	Relevant	1	457235	456745	770TRSEscan	123	8	1		Faces					492393	491403						TRSEscan	123	8	2	Faces	Faces	2390	497294	495004	0			Novel	Relevant	1	494890	494400	930TRSEscan	123	8	3	Faces	Faces	4390	502292	498002	0			Novel	Relevant	1	497889	497399	763TRSEscan	123	8	4	Scenes	Faces	6390	509284	502994	2			Novel	Irrelevant	1	502881	502391	659TRSEscan	123	8	5	Faces	Faces	4390	514285	509995	1			Repeat	Relevant	0	509882	509392	2449TRSEscan	123	8	6	Faces	Faces	2390	517277	514987	0			Repeat	Relevant	1	514874	514384	689TRSEscan	123	8	7	Faces	Faces	6390	524275	517985	0			Novel	Relevant	1	517872	517382	827TRSEscan	123	8	8	Scenes	Faces	2390	527277	524987	3			Novel	Irrelevant	1	524874	524384	665TRSEscan	123	8	9	Scenes	Faces	4390	532276	527986	0			Repeat	Irrelevant	0	527873	527383	770TRSEscan	123	8	10	Faces	Faces	2390	535267	532977	2			Repeat	Relevant	0	532865	532375	682TRSEscan	123	8	11	Scenes	Faces	4390	540266	535976	1			Repeat	Irrelevant	1	535863	535373	1068TRSEscan	123	8	12	Scenes	Faces	6390	547258	540968	0			Novel	Irrelevant	1	540855	540365	692TRSEscan	123	8	13	Faces	Faces	4390	552259	547969	2			Novel	Relevant	1	547856	547366	795TRSEscan	123	8	14	Scenes	Faces	2390	555251	552961	1			Repeat	Irrelevant	1	552848	552358	1123TRSEscan	123	8	15	Scenes	Faces	6390	562249	555959	0			Novel	Irrelevant	1	555846	555356	685TRSEscan	123	8	16	Scenes	Faces	4390	567251	562961	0			Novel	Irrelevant	1	562848	562358	739TRSEscan	123	8	17	Faces	Faces	6390	574243	567953	3			Novel	Relevant	1	567840	567350	834TRSEscan	123	8	18	Scenes	Faces	2390	577245	574955	1			Repeat	Irrelevant	1	574842	574352	640TRSEscan	123	8	19	Faces	Faces	2390	580243	577953	1			Repeat	Relevant	1	577840	577350	618TRSEscan	123	8	20	Faces	Faces	6390	587241	580951	0			Novel	Relevant	1	580838	580348	604TRSEscan	123	8	21	Scenes	Faces	4390	592243	587953	2			Novel	Irrelevant	1	587840	587350	1234TRSEscan	123	9	1		Categorize					80504	79514						TRSEscan	123	9	2	Faces	Categorize	4390	87406	83116	0			Novel	Irrelevant	1	83003	82513	839TRSEscan	123	9	3	Faces	Categorize	2390	90397	88107	0			Novel	Irrelevant	1	87995	87505	679TRSEscan	123	9	4	Scenes	Categorize	2390	93396	91106	2			Novel	Irrelevant	1	90993	90503	1065TRSEscan	123	9	5	Faces	Categorize	6390	100394	94104	1			Novel	Irrelevant	1	93991	93501	651TRSEscan	123	9	6	Faces	Categorize	4390	105396	101106	0			Repeat	Irrelevant	1	100993	100503	673TRSEscan	123	9	7	Faces	Categorize	6390	112388	106098	0			Novel	Irrelevant	1	105985	105495	665TRSEscan	123	9	8	Scenes	Categorize	2390	115389	113099	3			Novel	Irrelevant	1	112986	112496	872TRSEscan	123	9	9	Faces	Categorize	4390	120388	116098	1			Novel	Irrelevant	1	115985	115495	673TRSEscan	123	9	10	Faces	Categorize	6390	127379	121089	0			Repeat	Irrelevant	1	120977	120487	673TRSEscan	123	9	11	Scenes	Categorize	4390	132381	128091	2			Novel	Irrelevant	1	127978	127488	1479TRSEscan	123	9	12	Scenes	Categorize	2390	135373	133083	0			Repeat	Irrelevant	1	132970	132480	751TRSEscan	123	9	13	Faces	Categorize	4390	140371	136081	2			Repeat	Irrelevant	1	135968	135478	705TRSEscan	123	9	14	Scenes	Categorize	2390	143363	141073	1			Novel	Irrelevant	1	140960	140470	1065TRSEscan	123	9	15	Faces	Categorize	6390	150361	144071	1			Novel	Irrelevant	1	143958	143468	699TRSEscan	123	9	16	Scenes	Categorize	4390	155363	151073	1			Novel	Irrelevant	1	150960	150470	1049TRSEscan	123	9	17	Scenes	Categorize	6390	162355	156065	0			Repeat	Irrelevant	1	155952	155462	761TRSEscan	123	9	18	Scenes	Categorize	2390	165357	163067	0			Repeat	Irrelevant	1	162954	162464	671TRSEscan	123	9	19	Faces	Categorize	2390	168355	166065	3			Repeat	Irrelevant	1	165952	165462	633TRSEscan	123	9	20	Scenes	Categorize	4390	173354	169064	1			Novel	Irrelevant	1	168951	168461	1545TRSEscan	123	9	21	Scenes	Categorize	6390	180345	174055	0			Repeat	Irrelevant	1	173943	173453	793TRSEscan	123	10	1		Both					210742	209752						TRSEscan	123	10	2	Faces	Both	4390	217642	213352	0			Novel	Relevant	1	213239	212749	865TRSEscan	123	10	3	Faces	Both	2390	220634	218344	0			Novel	Relevant	1	218231	217741	729TRSEscan	123	10	4	Scenes	Both	2390	223633	221343	2			Novel	Relevant	1	221229	220739	1075TRSEscan	123	10	5	Faces	Both	6390	230631	224341	1			Novel	Relevant	1	224228	223738	828TRSEscan	123	10	6	Faces	Both	4390	235633	231343	0			Repeat	Relevant	1	231230	230740	1601TRSEscan	123	10	7	Faces	Both	6390	242624	236334	0			Novel	Relevant	1	236222	235732	897TRSEscan	123	10	8	Scenes	Both	2390	245626	243336	3			Novel	Relevant	1	243223	242733	888TRSEscan	123	10	9	Faces	Both	4390	250625	246335	1			Novel	Relevant	1	246222	245732	1041TRSEscan	123	10	10	Faces	Both	6390	257616	251326	0			Repeat	Relevant	1	251214	250724	1201TRSEscan	123	10	11	Scenes	Both	4390	262618	258328	2			Novel	Relevant	1	258215	257725	1320TRSEscan	123	10	12	Scenes	Both	2390	265610	263320	0			Repeat	Relevant	1	263207	262717	1064TRSEscan	123	10	13	Faces	Both	4390	270608	266318	2			Repeat	Relevant	1	266205	265715	1426TRSEscan	123	10	14	Scenes	Both	2390	273600	271310	1			Novel	Relevant	1	271197	270707	778TRSEscan	123	10	15	Faces	Both	6390	280598	274308	1			Novel	Relevant	1	274195	273705	892TRSEscan	123	10	16	Scenes	Both	4390	285600	281310	1			Novel	Relevant	1	281197	280707	745TRSEscan	123	10	17	Scenes	Both	6390	292592	286302	0			Repeat	Relevant	0	286189	285699	977TRSEscan	123	10	18	Scenes	Both	2390	295594	293304	0			Repeat	Relevant	1	293191	292701	855TRSEscan	123	10	19	Faces	Both	2390	298592	296302	3			Repeat	Relevant	1	296189	295699	1065TRSEscan	123	10	20	Scenes	Both	4390	303590	299300	1			Novel	Relevant	1	299187	298697	1099TRSEscan	123	10	21	Scenes	Both	6390	310582	304292	0			Repeat	Relevant	1	304179	303689	755TRSEscan	123	11	1		Faces					341515	340525						TRSEscan	123	11	2	Faces	Faces	4390	348415	344125	0			Novel	Relevant	1	344012	343522	929TRSEscan	123	11	3	Faces	Faces	2390	351407	349117	0			Novel	Relevant	1	349004	348514	649TRSEscan	123	11	4	Scenes	Faces	2390	354405	352115	2			Novel	Irrelevant	1	352002	351512	667TRSEscan	123	11	5	Faces	Faces	6390	361404	355114	1			Novel	Relevant	1	355001	354511	748TRSEscan	123	11	6	Faces	Faces	4390	366406	362116	0			Repeat	Relevant	1	362002	361512	851TRSEscan	123	11	7	Faces	Faces	6390	373397	367107	0			Novel	Relevant	1	366995	366505	802TRSEscan	123	11	8	Scenes	Faces	2390	376399	374109	3			Novel	Irrelevant	1	373996	373506	673TRSEscan	123	11	9	Faces	Faces	4390	381397	377107	1			Novel	Relevant	1	376994	376504	915TRSEscan	123	11	10	Faces	Faces	6390	388389	382099	0			Repeat	Relevant	1	381986	381496	771TRSEscan	123	11	11	Scenes	Faces	4390	393391	389101	2			Novel	Irrelevant	1	388988	388498	1640TRSEscan	123	11	12	Scenes	Faces	2390	396383	394093	0			Repeat	Irrelevant	1	393980	393490	992TRSEscan	123	11	13	Faces	Faces	4390	401381	397091	2			Repeat	Relevant	0	396978	396488	642TRSEscan	123	11	14	Scenes	Faces	2390	404373	402083	1			Novel	Irrelevant	1	401970	401480	834TRSEscan	123	11	15	Faces	Faces	6390	411371	405081	1			Novel	Relevant	1	404968	404478	820TRSEscan	123	11	16	Scenes	Faces	4390	416373	412083	1			Novel	Irrelevant	1	411970	411480	890TRSEscan	123	11	17	Scenes	Faces	6390	423365	417075	0			Repeat	Irrelevant	1	416962	416472	642TRSEscan	123	11	18	Scenes	Faces	2390	426366	424076	0			Repeat	Irrelevant	1	423963	423473	729TRSEscan	123	11	19	Faces	Faces	2390	429365	427075	3			Repeat	Relevant	1	426962	426472	1362TRSEscan	123	11	20	Scenes	Faces	4390	434363	430073	1			Novel	Irrelevant	1	429960	429470	588TRSEscan	123	11	21	Scenes	Faces	6390	441355	435065	0			Repeat	Irrelevant	1	434952	434462	652TRSEscan	123	12	1		Scenes					471047	470057						TRSEscan	123	12	2	Faces	Scenes	4390	477949	473659	0			Novel	Irrelevant	1	473546	473056	889TRSEscan	123	12	3	Faces	Scenes	2390	480940	478650	0			Novel	Irrelevant	1	478538	478048	689TRSEscan	123	12	4	Scenes	Scenes	2390	483939	481649	2			Novel	Relevant	1	481536	481046	499TRSEscan	123	12	5	Faces	Scenes	6390	490937	484647	1			Novel	Irrelevant	1	484534	484044	597TRSEscan	123	12	6	Faces	Scenes	4390	495939	491649	0			Repeat	Irrelevant	1	491536	491046	626TRSEscan	123	12	7	Faces	Scenes	6390	502931	496641	0			Novel	Irrelevant	1	496528	496038	706TRSEscan	123	12	8	Scenes	Scenes	2390	505932	503642	3			Novel	Relevant	1	503529	503039	849TRSEscan	123	12	9	Faces	Scenes	4390	510931	506641	1			Novel	Irrelevant	1	506528	506038	594TRSEscan	123	12	10	Faces	Scenes	6390	517922	511632	0			Repeat	Irrelevant	1	511520	511030	642TRSEscan	123	12	11	Scenes	Scenes	4390	522924	518634	2			Novel	Relevant	1	518521	518031	705TRSEscan	123	12	12	Scenes	Scenes	2390	525916	523626	0			Repeat	Relevant	1	523513	523023	985TRSEscan	123	12	13	Faces	Scenes	4390	530914	526624	2			Repeat	Irrelevant	1	526511	526021	811TRSEscan	123	12	14	Scenes	Scenes	2390	533906	531616	1			Novel	Relevant	1	531503	531013	827TRSEscan	123	12	15	Faces	Scenes	6390	540904	534614	1			Novel	Irrelevant	1	534501	534011	709TRSEscan	123	12	16	Scenes	Scenes	4390	545906	541616	1			Novel	Relevant	1	541503	541013	683TRSEscan	123	12	17	Scenes	Scenes	6390	552898	546608	0			Repeat	Relevant	1	546495	546005	778TRSEscan	123	12	18	Scenes	Scenes	2390	555900	553610	0			Repeat	Relevant	1	553497	553007	760TRSEscan	123	12	19	Faces	Scenes	2390	558898	556608	3			Repeat	Irrelevant	1	556495	556005	594TRSEscan	123	12	20	Scenes	Scenes	4390	563896	559606	1			Novel	Relevant	1	559493	559003	836TRSEscan	123	12	21	Scenes	Scenes	6390	570888	564598	0			Repeat	Relevant	1	564485	563995	924TRSEscan	123	13	1		Both					78424	77434						TRSEscan	123	13	2	Scenes	Both	2390	83324	81034	0			Novel	Relevant	1	80921	80431	689TRSEscan	123	13	3	Scenes	Both	4390	88323	84033	0			Repeat	Relevant	1	83919	83429	859TRSEscan	123	13	4	Faces	Both	6390	95314	89024	2			Novel	Relevant	1	88912	88422	554TRSEscan	123	13	5	Scenes	Both	4390	100316	96026	1			Repeat	Relevant	1	95913	95423	1057TRSEscan	123	13	6	Scenes	Both	2390	103308	101018	0			Novel	Relevant	1	100905	100415	872TRSEscan	123	13	7	Scenes	Both	4390	108306	104016	0			Novel	Relevant	1	103903	103413	754TRSEscan	123	13	8	Faces	Both	2390	111298	109008	3			Repeat	Relevant	0	108895	108405	658TRSEscan	123	13	9	Scenes	Both	6390	118296	112006	1			Repeat	Relevant	0	111893	111403	2212TRSEscan	123	13	10	Faces	Both	4390	123298	119008	1			Repeat	Relevant	1	118895	118405	962TRSEscan	123	13	11	Scenes	Both	6390	130290	124000	1			Novel	Relevant	1	123887	123397	1218TRSEscan	123	13	12	Scenes	Both	2390	133291	131001	0			Novel	Relevant	1	130888	130398	721TRSEscan	123	13	13	Faces	Both	2390	136290	134000	2			Novel	Relevant	1	133887	133397	682TRSEscan	123	13	14	Faces	Both	6390	143288	136998	0			Novel	Relevant	1	136885	136395	772TRSEscan	123	13	15	Scenes	Both	4390	148290	144000	2			Novel	Relevant	1	143887	143397	826TRSEscan	123	13	16	Faces	Both	6390	155282	148992	1			Repeat	Relevant	0	148879	148389	658TRSEscan	123	13	17	Faces	Both	2390	158284	155994	0			Novel	Relevant	1	155881	155391	719TRSEscan	123	13	18	Faces	Both	4390	163282	158992	0			Novel	Relevant	1	158879	158389	681TRSEscan	123	13	19	Scenes	Both	2390	166274	163984	3			Repeat	Relevant	1	163871	163381	969TRSEscan	123	13	20	Faces	Both	4390	171272	166982	1			Novel	Relevant	1	166869	166379	787TRSEscan	123	13	21	Faces	Both	6390	178264	171974	0			Repeat	Relevant	0	171861	171371	1043TRSEscan	123	14	1		Faces					208324	207334						TRSEscan	123	14	2	Scenes	Faces	2390	213226	210936	0			Novel	Irrelevant	1	210823	210333	784TRSEscan	123	14	3	Scenes	Faces	4390	218224	213934	0			Repeat	Irrelevant	1	213821	213331	546TRSEscan	123	14	4	Faces	Faces	6390	225216	218926	2			Novel	Relevant	1	218813	218323	594TRSEscan	123	14	5	Scenes	Faces	4390	230218	225928	1			Repeat	Irrelevant	1	225815	225325	1120TRSEscan	123	14	6	Scenes	Faces	2390	233209	230919	0			Novel	Irrelevant	1	230807	230317	552TRSEscan	123	14	7	Scenes	Faces	4390	238208	233918	0			Novel	Irrelevant	1	233805	233315	754TRSEscan	123	14	8	Faces	Faces	2390	241200	238910	3			Repeat	Relevant	0	238797	238307	562TRSEscan	123	14	9	Scenes	Faces	6390	248198	241908	1			Repeat	Irrelevant	1	241795	241305	492TRSEscan	123	14	10	Faces	Faces	4390	253200	248910	1			Repeat	Relevant	1	248797	248307	674TRSEscan	123	14	11	Scenes	Faces	6390	260191	253901	1			Novel	Irrelevant	1	253789	253299	722TRSEscan	123	14	12	Scenes	Faces	2390	263193	260903	0			Novel	Irrelevant	1	260790	260300	704TRSEscan	123	14	13	Faces	Faces	2390	266192	263902	2			Novel	Relevant	1	263789	263299	881TRSEscan	123	14	14	Faces	Faces	6390	273190	266900	0			Novel	Relevant	1	266787	266297	1003TRSEscan	123	14	15	Scenes	Faces	4390	278192	273902	2			Novel	Irrelevant	1	273789	273299	833TRSEscan	123	14	16	Faces	Faces	6390	285184	278894	1			Repeat	Relevant	0	278781	278291	785TRSEscan	123	14	17	Faces	Faces	2390	288185	285895	0			Novel	Relevant	1	285782	285292	936TRSEscan	123	14	18	Faces	Faces	4390	293184	288894	0			Novel	Relevant	1	288781	288291	1009TRSEscan	123	14	19	Scenes	Faces	2390	296175	293885	3			Repeat	Irrelevant	1	293773	293283	673TRSEscan	123	14	20	Faces	Faces	4390	301174	296884	1			Novel	Relevant	1	296771	296281	835TRSEscan	123	14	21	Faces	Faces	6390	308166	301876	0			Repeat	Relevant	0	301763	301273	739TRSEscan	123	15	1		Scenes					339181	338191						TRSEscan	123	15	2	Scenes	Scenes	2390	344082	341792	0			Novel	Relevant	1	341679	341189	830TRSEscan	123	15	3	Scenes	Scenes	4390	349081	344791	0			Repeat	Relevant	1	344678	344188	591TRSEscan	123	15	4	Faces	Scenes	6390	356073	349783	2			Novel	Irrelevant	1	349670	349180	599TRSEscan	123	15	5	Scenes	Scenes	4390	361074	356784	1			Repeat	Relevant	1	356671	356181	870TRSEscan	123	15	6	Scenes	Scenes	2390	364066	361776	0			Novel	Relevant	1	361663	361173	893TRSEscan	123	15	7	Scenes	Scenes	4390	369064	364774	0			Novel	Relevant	1	364661	364171	608TRSEscan	123	15	8	Faces	Scenes	2390	372056	369766	3			Repeat	Irrelevant	1	369653	369163	615TRSEscan	123	15	9	Scenes	Scenes	6390	379055	372765	1			Repeat	Relevant	0	372652	372162	656TRSEscan	123	15	10	Faces	Scenes	4390	384056	379766	1			Repeat	Irrelevant	1	379653	379163	631TRSEscan	123	15	11	Scenes	Scenes	6390	391048	384758	1			Novel	Relevant	1	384645	384155	983TRSEscan	123	15	12	Scenes	Scenes	2390	394050	391760	0			Novel	Relevant	1	391647	391157	693TRSEscan	123	15	13	Faces	Scenes	2390	397048	394758	2			Novel	Irrelevant	1	394645	394155	671TRSEscan	123	15	14	Faces	Scenes	6390	404047	397757	0			Novel	Irrelevant	1	397644	397154	664TRSEscan	123	15	15	Scenes	Scenes	4390	409048	404758	2			Novel	Relevant	1	404645	404155	847TRSEscan	123	15	16	Faces	Scenes	6390	416040	409750	1			Repeat	Irrelevant	1	409637	409147	671TRSEscan	123	15	17	Faces	Scenes	2390	419042	416752	0			Novel	Irrelevant	1	416639	416149	765TRSEscan	123	15	18	Faces	Scenes	4390	424040	419750	0			Novel	Irrelevant	1	419637	419147	2574TRSEscan	123	15	19	Scenes	Scenes	2390	427032	424742	3			Repeat	Relevant	1	424629	424139	1342TRSEscan	123	15	20	Faces	Scenes	4390	432030	427740	1			Novel	Irrelevant	1	427627	427137	592TRSEscan	123	15	21	Faces	Scenes	6390	439022	432732	0			Repeat	Irrelevant	1	432619	432129	712TRSEscan	123	16	1		Categorize					468815	467825						TRSEscan	123	16	2	Scenes	Categorize	2390	473716	471426	0			Novel	Irrelevant	1	471313	470823	865TRSEscan	123	16	3	Scenes	Categorize	4390	478715	474425	0			Repeat	Irrelevant	1	474312	473822	618TRSEscan	123	16	4	Faces	Categorize	6390	485706	479416	2			Novel	Irrelevant	1	479304	478814	618TRSEscan	123	16	5	Scenes	Categorize	4390	490708	486418	1			Repeat	Irrelevant	1	486305	485815	817TRSEscan	123	16	6	Scenes	Categorize	2390	493700	491410	0			Novel	Irrelevant	1	491297	490807	785TRSEscan	123	16	7	Scenes	Categorize	4390	498698	494408	0			Novel	Irrelevant	1	494295	493805	875TRSEscan	123	16	8	Faces	Categorize	2390	501690	499400	3			Repeat	Irrelevant	1	499287	498797	555TRSEscan	123	16	9	Scenes	Categorize	6390	508688	502398	1			Repeat	Irrelevant	1	502285	501795	677TRSEscan	123	16	10	Faces	Categorize	4390	513690	509400	1			Repeat	Irrelevant	1	509287	508797	675TRSEscan	123	16	11	Scenes	Categorize	6390	520682	514392	1			Novel	Irrelevant	1	514279	513789	1011TRSEscan	123	16	12	Scenes	Categorize	2390	523684	521394	0			Novel	Irrelevant	1	521281	520791	905TRSEscan	123	16	13	Faces	Categorize	2390	526682	524392	2			Novel	Irrelevant	1	524279	523789	723TRSEscan	123	16	14	Faces	Categorize	6390	533680	527390	0			Novel	Irrelevant	1	527277	526787	1532TRSEscan	123	16	15	Scenes	Categorize	4390	538682	534392	2			Novel	Irrelevant	1	534279	533789	754TRSEscan	123	16	16	Faces	Categorize	6390	545674	539384	1			Repeat	Irrelevant	1	539271	538781	986TRSEscan	123	16	17	Faces	Categorize	2390	548676	546386	0			Novel	Irrelevant	1	546273	545783	776TRSEscan	123	16	18	Faces	Categorize	4390	553674	549384	0			Novel	Irrelevant	1	549271	548781	914TRSEscan	123	16	19	Scenes	Categorize	2390	556666	554376	3			Repeat	Irrelevant	1	554263	553773	762TRSEscan	123	16	20	Faces	Categorize	4390	561664	557374	1			Novel	Irrelevant	1	557261	556771	748TRSEscan	123	16	21	Faces	Categorize	6390	568656	562366	0			Repeat	Irrelevant	1	562253	561763	724